,leftJointPosition,rightJointPosition,leftJointVelocity,rightJointVelocity,imuGyroX,imuGyroY,imuGyroZ,imuAccX,imuAccY,imuAccZ,leftGaitPhaseX,leftGaitPhaseY,rightGaitPhaseX,rightGaitPhaseY
255,0.1698987484,-0.36395916340000006,0.5924523473,1.31316483,0.12232499599999999,-0.05670000017000001,0.4866749907,0.6860000029000001,-10.79959998,0.8036000222,1.0,-2.4492935982947064e-16,-0.9353241417537211,0.353791958434141
256,0.1683646739,-0.3536041677,0.3656260967,1.506040096,0.12232499599999999,-0.05670000017000001,0.4866749907,0.6860000029000001,-10.79959998,0.8036000222,1.0,0.0,-0.9430807674052091,0.332563777568156
257,0.16491299869999998,-0.3443997204,0.07862491161,1.594284892,0.23852500199999999,0.035,0.574175024,0.46059998420000003,-10.09399972,1.038799988,0.9997408848413492,0.022763197856105682,-0.9503556665478066,0.3111657228238264
258,0.16491299869999998,-0.3328941464,0.05202827603,1.7826002840000001,0.23852500199999999,0.035,0.574175024,0.46059998420000003,-10.09399972,1.038799988,0.9989636736467276,0.045514599132963594,-0.9571451231564523,0.2896087243468674
259,0.16491299869999998,-0.3225391507,0.03553796932,1.86309731,0.33039998530000003,0.1172499967,0.6147750187,1.028999968,-8.878800177999999,0.8917999819,0.9976687691905392,0.06824241336467098,-0.9634456691705703,0.26790379347159676
260,0.1656800359,-0.3118006289,0.05795253068,1.942738175,0.33039998530000003,0.1172499967,0.6147750187,1.028999968,-8.878800177999999,0.8917999819,0.9958568425315313,0.09093486230884695,-0.9692540862655586,0.24606201709633505
261,0.1664470732,-0.2987609804,0.06956653297,2.013581514,0.3794000053,0.170625,0.599725008,1.372000006,-7.92820015,0.39199999119999995,0.9935288326650312,0.11358018605047482,-0.974567407496712,0.22409455202020784
262,0.166063562,-0.2891730368,0.02615683526,2.0934019090000002,0.3794000053,0.170625,0.599725008,1.372000006,-7.92820015,0.39199999119999995,0.9906859460363308,0.1361666490962466,-0.9793829188147405,0.2020126192442429
263,0.1664470732,-0.2745993137,0.02592411079,2.189385891,0.3783500147,0.18987500670000002,0.5699749947,1.23480002,-7.74200021,0.3136000149,0.9873296559154696,0.1586825464562513,-0.9836981604521077,0.17982749823967262
264,0.1656800359,-0.261559695,-0.02622992918,2.286902905,0.3783500147,0.18987500670000002,0.5699749947,1.23480002,-7.74200021,0.3136000149,0.9834617016337421,0.18111620970985573,-0.9875109281794826,0.15755052118636975
265,0.1664470732,-0.2477530241,0.011524210679999999,2.414027452,0.3708250093,0.174824996,0.551775012,-0.235200002,-7.261799967000001,0.2548000053,0.9790840876823229,0.20345601305263378,-0.990819274431662,0.13519306718435994
266,0.1664470732,-0.2354804277,0.006704822183,2.422569752,0.3708250093,0.174824996,0.551775012,-0.235200002,-7.261799967000001,0.2548000053,0.9741990826734791,0.2256903793212106,-0.9936215093023882,0.11276655644136696
267,0.1675976366,-0.2255089432,0.06657221913,2.299464464,0.3346000147,0.16747499470000002,0.3692500067,-1.107399981,-7.291200172999999,0.3430000015,0.9688092181649064,0.24780778599289993,-0.9959162014075551,0.09028244443936032
268,0.1675976366,-0.21745504440000002,0.05563507602000001,2.1264686580000003,0.3346000147,0.16747499470000002,0.3692500067,-1.107399981,-7.291200172999999,0.3430000015,0.9629172873477994,0.2697967711570243,-0.9977021786163599,0.06775221608308475
269,0.1668305993,-0.2090176344,-0.004840388894,2.0257353780000003,0.22470000269999998,0.1130500007,0.2028250027,-1.607200044,-8.859199846000001,0.5586000003,0.9565263435993347,0.291645939454825,-0.9989785286500293,0.04518737983356
270,0.1672141105,-0.2009637505,0.014493193480000003,1.920014858,0.22470000269999998,0.1130500007,0.2028250027,-1.607200044,-8.859199846000001,0.5586000003,0.9496396989003193,0.31334396798488223,-0.9997445995478118,0.022599461829550756
271,0.1668305993,-0.1948274523,-0.0159095861,1.739271641,0.1275749993,0.07455000401,0.001225000005,-3.7533998669999997,-8.908199799,-0.4214000143,0.9422609221188205,0.3348796121709861,-1.0,1.2246467991473532e-16
272,0.1664470732,-0.1906087548,-0.041527099910000004,1.501767516,-0.1979250073,0.10009999630000001,-0.2325749993,-3.596600133,-13.17119982,0.5389999971,0.9343938371606711,0.3562417115894168,-0.9997445995478118,-0.022599461829550513
273,0.1664470732,-0.1906087548,-0.041527099910000004,1.501767516,-0.1979250073,0.10009999630000001,-0.2325749993,-3.596600133,-13.17119982,0.5389999971,0.9260425209878053,0.37741919575261446,-0.9989785286500293,-0.04518737983356064
274,0.1679811478,-0.1886911541,0.041378732769999996,0.7659808397,-0.1979250073,0.10009999630000001,-0.2325749993,-3.596600133,-13.17119982,0.5389999971,0.917211301505453,0.39840108984624145,-0.9977021786163599,-0.06775221608308495
275,0.1664470732,-0.18907468019999998,-0.05244171619,0.6205354929,-0.5232499933,0.1545249987,-0.1450749993,-3.743599993,-14.35700033,2.097200015,0.9079047553192889,0.41917652041666414,-0.9959162014075551,-0.09028244443936007
276,0.1652965248,-0.19214282929999998,-0.1065413505,0.3014431298,-0.5232499933,0.1545249987,-0.1450749993,-3.743599993,-14.35700033,2.097200015,0.8981277053636961,0.4397347210059058,-0.9936215093023882,-0.11276655644136671
277,0.1675976366,-0.1975120753,0.04759311676,-0.06095648557,-0.747424984,0.20580000399999998,-0.126875,-2.116800055,-12.65180008,2.057999936,0.8878852184023752,0.46006503773115215,-0.9908192744316621,-0.13519306718435972
278,0.1664470732,-0.2009637505,-0.01351284981,-0.2370209694,-0.747424984,0.20580000399999998,-0.126875,-2.116800055,-12.65180008,2.057999936,0.8771826024025942,0.4801569348059156,-0.9875109281794826,-0.15755052118636997
279,0.166063562,-0.20441541079999997,-0.02015597001,-0.3583928943,-0.7453250026999999,0.1802500033,-0.08959999800000001,-0.1469999967,-9.760799921,-0.05880000051,0.8660254037844387,0.49999999999999994,-0.9836981604521077,-0.1798274982396728
280,0.1633789241,-0.2105517089,-0.1539527625,-0.5883792639000001,-0.7453250026999999,0.1802500033,-0.08959999800000001,-0.1469999967,-9.760799921,-0.05880000051,0.8544194045464886,0.5195839500354336,-0.9793829188147405,-0.20201261924424269
281,0.1622283757,-0.21438689530000002,-0.1918550134,-0.6070578694,-0.641724968,0.126875,-0.050049998160000005,0.1666000091,-8.320199776,-1.5484000709999999,0.8423706192694116,0.5388986359155754,-0.9745674074967121,-0.22409455202020762
282,0.1606943011,-0.2170715332,-0.2047426999,-0.6203315258,-0.641724968,0.126875,-0.050049998160000005,0.1666000091,-8.320199776,-1.5484000709999999,0.8298852919990252,0.5579340481846333,-0.9692540862655586,-0.24606201709633482
283,0.157242626,-0.21860560769999998,-0.3344293833,-0.4987302125,-0.4145750093,0.128974998,0.004375,0.2254000004,-7.467600237999999,-2.8518000839999997,0.816969893010442,0.5766803221148672,-0.9634456691705703,-0.267903793471597
284,0.1553250402,-0.2189891189,-0.34375390409999995,-0.3931652009,-0.4145750093,0.128974998,0.004375,0.2254000004,-7.467600237999999,-2.8518000839999997,0.8036311154549782,0.5951277428187897,-0.9571451231564522,-0.2896087243468676
285,0.1557085514,-0.21745504440000002,-0.22938622530000002,-0.2123568356,-0.1562750053,0.12040000199999999,-0.132299999,-0.38220000789999997,-5.929000187000001,-4.057200044,0.7898758718915586,0.6132667502837162,-0.9503556665478065,-0.31116572282382654
286,0.1530239284,-0.21745504440000002,-0.30221822859999997,-0.1532333642,-0.1562750053,0.12040000199999999,-0.132299999,-0.38220000789999997,-5.929000187000001,-4.057200044,0.7757112907044199,0.6310879443260528,-0.9430807674052092,-0.3325637775681558
287,0.1534074396,-0.21438689530000002,-0.2011368424,0.05805742368,0.025200001,0.035,-0.3307499933,-0.7447999761,-8.437800014,-4.282600063,0.7611447124089648,0.6485820894627559,-0.9353241417537212,-0.35379195843414085
288,0.1537909657,-0.210935235,-0.1119607985,0.2290251255,0.025200001,0.035,-0.3307499933,-0.7447999761,-8.437800014,-4.282600063,0.7461836858476856,0.6657401196974406,-0.9270897516847403,-0.3748394220477971
289,0.1511063278,-0.2071000487,-0.2165964991,0.36794418100000004,0.1190000033,-0.0694750005,-0.5323500013,-2.244200021,-11.32880018,-4.145400077,0.7308359642781241,0.682553143218654,-0.918381803332161,-0.395695417345675
290,0.1465041041,-0.2017307878,-0.41015499829999996,0.5533329248,0.1190000033,-0.0694750005,-0.5323500013,-2.244200021,-11.32880018,-4.145400077,0.7151095013548994,0.6990124470078821,-0.9092047447238769,-0.4163492910665152
291,0.1415183693,-0.1948274523,-0.5828356743,0.7686181664,0.071049999,-0.2486750007,-0.5815249920000001,-2.861599958,-15.8858005,-2.646000105,0.6990124470078821,0.7151095013548994,-0.8995632635097248,-0.4367904931929418
292,0.13346447050000002,-0.1867735684,-0.8621793984999999,0.9924077988,-0.060200000999999996,-0.459024992,-0.35839999200000006,-3.038000023,-19.48240035,-1.411199939,0.6825531432186541,0.730835964278124,-0.8894622845670281,-0.4570085823404228
293,0.13346447050000002,-0.1867735684,-0.8621793984999999,0.9924077988,-0.060200000999999996,-0.459024992,-0.35839999200000006,-3.038000023,-19.48240035,-1.411199939,0.6657401196974406,0.7461836858476856,-0.8789069674849658,-0.47699323109073705
294,0.10316650570000001,-0.1675976366,-1.7625852819999999,1.320190668,-0.060200000999999996,-0.459024992,-0.35839999200000006,-3.038000023,-19.48240035,-1.411199939,0.648582089462756,0.7611447124089648,-0.8679027039290497,-0.4967342312672284
295,0.09089390934000001,-0.1626118869,-2.047366142,1.307509065,-0.240625,-0.6543249893,-0.06282499849999999,-2.98900007,-18.13000023,0.18619999399999998,0.6310879443260529,0.7757112907044197,-0.856455114887056,-0.5162214991491537
296,0.07900483161,-0.1587767005,-2.241412878,1.238390088,-0.240625,-0.6543249893,-0.06282499849999999,-2.98900007,-18.13000023,0.18619999399999998,0.6132667502837164,0.7898758718915586,-0.8445700477978205,-0.5354450806224549
297,0.06097945943,-0.1530239284,-2.603437901,1.154623508,-0.38360000130000005,-0.7405999947,0.166600008,-2.59699986,-15.09199963,0.8722000152,0.5951277428187898,0.8036311154549781,-0.83225357356436,-0.5543951562643313
298,0.04295408353,-0.1503392905,-2.878478527,1.045662761,-0.38360000130000005,-0.7405999947,0.166600008,-2.59699986,-15.09199963,0.8722000152,0.5766803221148672,0.816969893010442,-0.8195119834528533,-0.573062046359005
299,0.0260792654,-0.1442029923,-3.016387701,1.093581915,-0.428399992,-0.748125,0.2945249987,-2.165800008,-11.84819992,1.1172000009999998,0.5579340481846334,0.829885291999025,-0.8063517858790512,-0.5914362158421351
300,0.008053890429,-0.1392172575,-3.161031008,1.064387202,-0.428399992,-0.748125,0.2945249987,-2.165800008,-11.84819992,1.1172000009999998,0.5388986359155754,0.8423706192694116,-0.7927797030837769,-0.6095082791713322
301,-0.014957225880000003,-0.132313922,-3.359785557,1.093368053,-0.4122999907,-0.6851250267,0.2871749973,-1.6561999980000002,-9.995999813,1.038799988,0.5195839500354337,0.8544194045464886,-0.778802667699196,-0.6272690051203037
302,-0.03106500767,-0.1288622469,-3.5026054380000002,1.040406108,-0.4122999907,-0.6851250267,0.2871749973,-1.6561999980000002,-9.995999813,1.038799988,0.5000000000000001,0.8660254037844386,-0.7644278192076236,-0.6447093214941729
303,-0.04947390035,-0.12426003070000001,-3.558062553,0.9485608935,-0.350525012,-0.62125,0.2721250033,-1.881600016,-9.65300014,0.49979999070000003,0.4801569348059156,0.8771826024025942,-0.7496625002946697,-0.6618203197635627
304,-0.06749927253,-0.1223424375,-3.5662398339999997,0.7926545143000001,-0.350525012,-0.62125,0.2721250033,-1.881600016,-9.65300014,0.49979999070000003,0.46006503773115215,0.8878852184023752,-0.7345142530985886,-0.6785932596150823
305,-0.08974335343,-0.1192742884,-3.6050477030000003,0.7357602119,-0.27037499670000004,-0.53375,0.31919999600000004,-1.9991999630000001,-9.329600215,1.146599987,0.43973472100590577,0.8981277053636961,-0.7189908153577471,-0.6950195734158873
306,-0.1054676175,-0.1142885461,-3.674812555,0.8036035299,-0.27037499670000004,-0.53375,0.31919999600000004,-1.9991999630000001,-9.329600215,1.146599987,0.41917652041666414,0.9079047553192889,-0.7031001164581828,-0.7110908705900321
307,-0.12272595609999999,-0.10930280390000001,-3.61598587,0.8482667804,-0.113574996,-0.44625,0.3158749866,-2.195200068,-8.251600075,1.7933999840000001,0.39840108984624134,0.917211301505453,-0.6868502733832642,-0.7267989419043861
308,-0.1426689178,-0.103933543,-3.7116255760000003,0.9026110768000001,-0.113574996,-0.44625,0.3158749866,-2.195200068,-8.251600075,1.7933999840000001,0.3774191957526144,0.9260425209878053,-0.6702495865675305,-0.7421357636619155
309,-0.1591602266,-0.09818076342,-3.604094982,0.9628278017,0.002799999937,-0.416325016,0.187949996,-1.92079995,-8.927800131,2.136399949,0.35624171158941687,0.934393837160671,-0.6533065356568204,-0.7570935018001961
310,-0.1775691211,-0.09127742797,-3.6295335289999997,1.070034742,0.002799999937,-0.416325016,0.187949996,-1.92079995,-8.927800131,2.136399949,0.33487961217098605,0.9422609221188205,-0.6360297751768622,-0.7716645158930597
311,-0.19904614980000002,-0.08514112979,-3.61252141,1.107843995,0.10307499769999999,-0.384299984,0.133525002,-1.901200056,-9.545199776,2.155999988,0.31334396798488223,0.9496396989003193,-0.6184281301125334,-0.78584136305333
312,-0.21438689530000002,-0.07900483161,-3.6632092000000003,1.136755586,0.1874250007,-0.327774992,0.10360000130000001,-1.362199986,-9.790200126,2.136399949,0.29164593945482503,0.9565263435993347,-0.6005105914000499,-0.7996168017346573
313,-0.21438689530000002,-0.07900483161,-3.6632092000000003,1.136755586,0.1874250007,-0.327774992,0.10360000130000001,-1.362199986,-9.790200126,2.136399949,0.2697967711570242,0.9629172873477994,-0.5822863113343932,-0.8129837954305031
314,-0.2561904192,-0.06519816071000001,-3.403734684,1.071855187,0.1874250007,-0.327774992,0.10360000130000001,-1.362199986,-9.790200126,2.136399949,0.24780778599289993,0.9688092181649064,-0.563764598894301,-0.8259355162683997
315,-0.2661619186,-0.06443112344,-3.3917512889999997,0.992875576,0.2374749947,-0.2903250027,0.1025500023,-1.74440003,-10.27039979,1.842399937,0.22569037932121072,0.974199082673479,-0.5449549149872374,-0.8384653484976304
316,-0.2769004405,-0.06097945943,-3.240210295,0.9109714627,0.2374749947,-0.2903250027,0.1025500023,-1.74440003,-10.27039979,1.842399937,0.20345601305263397,0.9790840876823228,-0.5258668676167548,-0.8505668918685599
317,-0.2945422828,-0.05791131034,-3.14850688,0.7910612821999999,0.271600008,-0.2275,0.14629999400000002,-1.7933999840000001,-10.08420043,2.0089999819999997,0.18111620970985579,0.9834617016337421,-0.5065102069747113,-0.8622339649018909
318,-0.3052808046,-0.0563772358,-3.05455327,0.6991112232,0.271600008,-0.2275,0.14629999400000002,-1.7933999840000001,-10.08420043,2.0089999819999997,0.15868254645625143,0.9873296559154696,-0.48689482046087,-0.8734606080461655
319,-0.3187039495,-0.05369260535,-2.7985403539999996,0.6230509877,0.284375,-0.16345000269999999,0.16117500070000002,-1.6561999980000002,-9.427600121000001,1.901200056,0.1361666490962466,0.9906859460363308,-0.4670307276324004,-0.8842410867219135
320,-0.3328941464,-0.0521585308,-2.8069188589999996,0.5361219049,0.284375,-0.16345000269999999,0.16117500070000002,-1.6561999980000002,-9.427600121000001,1.901200056,0.1135801860504749,0.9935288326650311,-0.4469280750858855,-0.894569894250877
321,-0.34324914219999997,-0.05062445626,-2.610813379,0.4692824781,0.2919000053,-0.1153250027,0.16117500070000002,-1.5484000709999999,-9.251200056,1.5484000709999999,0.0909348623088471,0.9958568425315313,-0.4265971312744255,-0.9044417546688291
322,-0.3551382422,-0.04909038171,-2.542564631,0.4252619743,0.2919000053,-0.1153250027,0.16117500070000002,-1.5484000709999999,-9.251200056,1.5484000709999999,0.068242413364671,0.9976687691905392,-0.40604828126250464,-0.9138516254205417
323,-0.36549323799999994,-0.04947390035,-2.418869495,0.2835448086,0.30257501600000003,-0.08662499666000001,0.1548750067,-1.460200039,-9.11400007,1.430799979,0.04551459913296371,0.9989636736467276,-0.38529202142129604,-0.9227946999355228
324,-0.3773823082,-0.04947390035,-2.41216898,0.213986963,0.30257501600000003,-0.08662499666000001,0.1548750067,-1.460200039,-9.11400007,1.430799979,0.02276319785610566,0.9997408848413492,-0.3643389540670965,-0.9312664100832233
325,-0.3881208301,-0.04909038171,-2.3545970919999997,0.1830542535,0.30362500670000003,-0.05774999917,0.17184999469999998,-1.225,-9.917599654,1.0878000140000001,6.123233995736766e-17,1.0,-0.34319978204565915,-0.9392624285064383
326,-0.3988593519,-0.04832334444,-2.308809996,0.1765333712,0.30362500670000003,-0.05774999917,0.17184999469999998,-1.225,-9.917599654,1.0878000140000001,-0.022763197856105758,0.9997408848413492,-0.32188530326517195,-0.9467786708317252
327,-0.40959787369999995,-0.04755630717,-2.271251678,0.1690444797,0.3335499907,-0.04497499883,0.2028250027,-1.077999994,-9.319799757,0.6958000228,-0.045514599132963365,0.9989636736467276,-0.30040640518067063,-0.9538112977557074
328,-0.4199528694,-0.04832334444,-2.218507528,0.08569020033,0.3335499907,-0.04497499883,0.2028250027,-1.077999994,-9.319799757,0.6958000228,-0.06824241336467089,0.9976687691905392,-0.2787740592327226,-0.9603567170061916
329,-0.43030786509999996,-0.04870686308,-2.169732809,0.03449983895,0.310099988,-0.05774999917,0.2262750053,-0.9408000082,-9.760799921,0.5978000067,-0.090934862308847,0.9958568425315313,-0.25699931524320263,-0.966411585177105
330,-0.44258046149999997,-0.04755630717,-2.237476826,0.0836429894,0.310099988,-0.05774999917,0.2262750053,-0.9408000082,-9.760799921,0.5978000067,-0.11358018605047501,0.9935288326650311,-0.23509329577103244,-0.9719728094363103
331,-0.452935487,-0.04832334444,-2.202668905,0.02012185194,0.271600008,-0.058799998160000005,0.283849988,-0.882000035,-9.515800153999999,0.6369999766,-0.13616664909624648,0.9906859460363308,-0.2130671904307687,-0.9770375491054264
332,-0.46290695670000004,-0.04832334444,-2.145362377,0.01231007092,0.2215499973,-0.07490000367,0.293475008,-0.8231999889,-9.466800201,0.37239998799999996,-0.15868254645625132,0.9873296559154696,-0.19093225017694,-0.98160321711085
333,-0.46290695670000004,-0.04832334444,-2.145362377,0.01231007092,0.2215499973,-0.07490000367,0.293475008,-0.8231999889,-9.466800201,0.37239998799999996,-0.1811162097098559,0.983461701633742,-0.16869978155704718,-0.9856674813052344
334,-0.4882192016,-0.04755630717,-2.137355328,0.03192362189,0.2215499973,-0.07490000367,0.293475008,-0.8231999889,-9.466800201,0.37239998799999996,-0.20345601305263364,0.9790840876823229,-0.14638114093616694,-0.9892282656587538
335,-0.4932049215,-0.04832334444,-2.060575485,-0.01550169103,0.16922500129999998,-0.07805000067000001,0.314824996,-0.8623999953,-9.388400042,0.2254000004,-0.2256903793212106,0.9741990826734791,-0.12398772869611199,-0.9922837513195403
336,-0.5020258427000001,-0.04717278853,-1.9828935859999999,0.05058724806,0.16922500129999998,-0.07805000067000001,0.314824996,-0.8623999953,-9.388400042,0.2254000004,-0.24780778599289982,0.9688092181649064,-0.1015309834121084,-0.9948323775427548
337,-0.5116138458,-0.04755630717,-1.969390512,0.019349070269999998,0.1190000033,-0.07262500167000001,0.333025012,-0.8428000286,-9.437399995,-0.03920000186,-0.26979677115702433,0.9629172873477992,-0.0790223760099548,-0.9968728424878177
338,-0.5189006925,-0.0479398258,-1.83231461,-0.007662821561,0.1190000033,-0.07262500167000001,0.333025012,-0.8428000286,-9.437399995,-0.03920000186,-0.2916459394548249,0.9565263435993347,-0.056473403906669356,-0.9984041038833896
339,-0.5269545913,-0.0479398258,-1.7641011480000002,-0.0128044216,0.07857499599,-0.08330000401000001,0.327599988,-1.009400001,-9.917599654,0.05880000051,-0.3133439679848821,0.9496396989003193,-0.033895585137596065,-0.9994253795597648
340,-0.5357754827000001,-0.04755630717,-1.758312941,0.003272980452,0.07857499599,-0.08330000401000001,0.327599988,-1.009400001,-9.917599654,0.05880000051,-0.33487961217098616,0.9422609221188205,-0.011300452472980128,-0.9999361478484043
341,-0.5415282845,-0.0479398258,-1.593015909,-0.01780692115,0.037975001339999995,-0.08872500300000001,0.3564750147,-0.8722000152,-10.01559956,0.08819999619999999,-0.35624171158941653,0.9343938371606713,0.01130045247297976,-0.9999361478484043
342,-0.5491986275,-0.04717278853,-1.570024729,0.022256972269999998,0.037975001339999995,-0.08872500300000001,0.3564750147,-0.8722000152,-10.01559956,0.08819999619999999,-0.3774191957526143,0.9260425209878053,0.03389558513759659,-0.9994253795597648
343,-0.5561019778,-0.04678926989,-1.505652547,0.0341093652,0.01014999971,-0.08662499666000001,0.368200016,-1.283799973,-10.44679985,0.46059998420000003,-0.39840108984624145,0.917211301505453,0.05647340390666988,-0.9984041038833895
344,-0.5630053282,-0.04602223262,-1.468897939,0.06090639159,0.01014999971,-0.08662499666000001,0.368200016,-1.283799973,-10.44679985,0.46059998420000003,-0.4191765204166642,0.9079047553192889,0.07902237600995533,-0.9968728424878176
345,-0.5699086785,-0.04563871399,-1.454948664,0.07226747274,-0.008924999833,-0.06422500133999999,0.3960249853,-0.9800000146,-10.33899949,0.4704000041,-0.4397347210059059,0.8981277053636961,0.10153098341210805,-0.9948323775427548
346,-0.5748943686,-0.04448815808,-1.330549002,0.12249125539999998,-0.008924999833,-0.06422500133999999,0.3960249853,-0.9800000146,-10.33899949,0.4704000041,-0.4600650377311521,0.8878852184023752,0.12398772869611163,-0.9922837513195404
347,-0.5806471704999999,-0.04448815808,-1.287207603,0.1012449116,-0.022924998999999998,-0.06422500133999999,0.4375,-0.9701999947,-10.28020024,0.46059998420000003,-0.4801569348059154,0.8771826024025944,0.14638114093616655,-0.9892282656587539
348,-0.5863999724,-0.04410463944,-1.253615379,0.1031840965,-0.022924998999999998,-0.06422500133999999,0.4375,-0.9701999947,-10.28020024,0.46059998420000003,-0.4999999999999998,0.8660254037844388,0.16869978155704768,-0.9856674813052343
349,-0.5910021663,-0.0425705649,-1.1673622129999999,0.1530933827,-0.02607500017,-0.048125,0.4705749893,-1.175999974,-10.15280013,0.6860000029000001,-0.5195839500354332,0.8544194045464888,0.1909322501769405,-0.9816032171108499
350,-0.595987916,-0.039502415810000004,-1.122810364,0.28021612760000003,-0.02607500017,-0.048125,0.4705749893,-1.175999974,-10.15280013,0.6860000029000001,-0.5388986359155754,0.8423706192694116,0.2130671904307683,-0.9770375491054265
351,-0.5990560651,-0.035667229439999996,-0.9840144515000001,0.4068109393,-0.01644999996,-0.0267749995,0.4577999973,-0.9408000082,-9.613800061000001,0.7839999825,-0.5579340481846333,0.8298852919990252,0.23509329577103205,-0.9719728094363104
352,-0.6025077105,-0.032599080350000004,-0.9094868302,0.4588231146,-0.0378000015,-0.0311499995,0.41089999200000005,-0.7839999825,-9.790200126,0.5586000003,-0.576680322114867,0.8169698930104421,0.2569993152432032,-0.9664115851771049
353,-0.6025077105,-0.032599080350000004,-0.9094868302,0.4588231146,-0.0378000015,-0.0311499995,0.41089999200000005,-0.7839999825,-9.790200126,0.5586000003,-0.5951277428187896,0.8036311154549783,0.2787740592327231,-0.9603567170061915
354,-0.6109451652000001,-0.02339463495,-0.7413115501,0.5873809457,-0.0378000015,-0.0311499995,0.41089999200000005,-0.7839999825,-9.790200126,0.5586000003,-0.6132667502837164,0.7898758718915586,0.30040640518067113,-0.9538112977557073
355,-0.6124792099,-0.02109352313,-0.744263351,0.6199983358,-0.05495000183999999,-0.025725000499999998,0.47600001340000003,-0.9309999883,-9.878400159,0.1274000026,-0.6310879443260524,0.7757112907044201,0.3218853032651716,-0.9467786708317253
356,-0.6143968105,-0.0218605604,-0.6571756005,0.41716322299999997,-0.05495000183999999,-0.025725000499999998,0.47600001340000003,-0.9309999883,-9.878400159,0.1274000026,-0.6485820894627559,0.7611447124089648,0.34319978204565965,-0.939262428506438
357,-0.6186155081,-0.01955944858,-0.7234905362,0.4165008664,-0.07297500134,-0.01085000008,0.4791499853,-0.7153999895,-10.16259942,0.5096000104999999,-0.6657401196974405,0.7461836858476856,0.3643389540670962,-0.9312664100832234
358,-0.6201496124,-0.01725833677,-0.6283888221,0.4370497465,-0.07297500134,-0.01085000008,0.4791499853,-0.7153999895,-10.16259942,0.5096000104999999,-0.6825531432186542,0.7308359642781239,0.3852920214212966,-0.9227946999355225
359,-0.6213001609000001,-0.01687481813,-0.5295104384,0.3359338343,-0.07630000234,0.008399999812,0.573125,-1.175999974,-10.01559956,0.5292000137,-0.6990124470078819,0.7151095013548996,0.40604828126250514,-0.9138516254205414
360,-0.6216836572,-0.01419018861,-0.41830417509999995,0.38411280509999995,-0.07630000234,0.008399999812,0.573125,-1.175999974,-10.01559956,0.5292000137,-0.7151095013548994,0.699012447007882,0.4265971312744252,-0.9044417546688293
361,-0.6213001609000001,-0.0130396327,-0.2966826558,0.3522828817,-0.08365000367,0.0008750000130000001,0.5325250053,-0.4018000111,-9.329600215,0.7644000157999999,-0.7308359642781241,0.682553143218654,0.44692807508588595,-0.8945698942508766
362,-0.6193825603,-0.013423151340000002,-0.1217453331,0.24577768149999998,-0.08365000367,0.0008750000130000001,0.5325250053,-0.4018000111,-9.329600215,0.7644000157999999,-0.7461836858476855,0.6657401196974407,0.4670307276324009,-0.8842410867219133
363,-0.6170814633,-0.01610778086,0.04397215694,0.043097637589999994,-0.08907500267000001,0.031850000919999996,0.5272749853,-0.6272000298,-9.888199449,0.9408000082,-0.7611447124089646,0.6485820894627561,0.4868948204608696,-0.8734606080461658
364,-0.6197660564999999,-0.014573707250000002,-0.09582149982,0.10121224820000001,-0.08907500267000001,0.031850000919999996,0.5272749853,-0.6272000298,-9.888199449,0.9408000082,-0.7757112907044199,0.6310879443260526,0.5065102069747117,-0.8622339649018906
365,-0.6197660564999999,-0.01380666997,-0.08157980442000001,0.10630770769999999,-0.07192500234,0.06282499849999999,0.5783749866,-0.6860000029000001,-9.623599935,1.097600034,-0.7898758718915584,0.6132667502837166,0.5258668676167544,-0.8505668918685602
366,-0.6197660564999999,-0.013423151340000002,-0.06736074387999999,0.101133801,-0.07192500234,0.06282499849999999,0.5783749866,-0.6860000029000001,-9.623599935,1.097600034,-0.8036311154549782,0.5951277428187897,0.5449549149872377,-0.8384653484976302
367,-0.6174649596,-0.01380666997,0.0729149729,0.05821832268999999,-0.050575001839999995,0.07349999666,0.5773250294,-0.5978000067,-9.535399902,1.068199974,-0.816969893010442,0.5766803221148672,0.5637645988943013,-0.8259355162683995
368,-0.6182320118,-0.01380666997,0.02684576996,0.03697695583,-0.050575001839999995,0.07349999666,0.5773250294,-0.5978000067,-9.535399902,1.068199974,-0.829885291999025,0.5579340481846334,0.5822863113343936,-0.8129837954305028
369,-0.6197660564999999,-0.01380666997,-0.05952712892999999,0.02377125435,-0.0453249985,0.09169999598999999,0.5890499973,-0.5586000003,-9.417800247999999,1.12700002,-0.8423706192694115,0.5388986359155756,0.6005105914000503,-0.7996168017346571
370,-0.6189990044,-0.0130396327,-0.01444726158,0.05447477102000001,-0.0453249985,0.09169999598999999,0.5890499973,-0.5586000003,-9.417800247999999,1.12700002,-0.8544194045464886,0.5195839500354335,0.6184281301125331,-0.7858413630533302
371,-0.6178484559,-0.0130396327,0.04271288216,0.04247026518,-0.03132499933,0.1130500007,0.5752249813,-0.4018000111,-9.163000023,1.146599987,-0.8660254037844387,0.49999999999999994,0.6360297751768625,-0.7716645158930594
372,-0.6178484559,-0.013423151340000002,0.03638992831,0.011099846100000001,-0.025024999080000002,0.127924999,0.5827499866,0.07840000372,-9.104200196,1.156400007,-0.8771826024025942,0.4801569348059156,0.6533065356568207,-0.7570935018001959
373,-0.6178484559,-0.013423151340000002,0.03638992831,0.011099846100000001,-0.025024999080000002,0.127924999,0.5827499866,0.07840000372,-9.104200196,1.156400007,-0.8878852184023752,0.4600650377311522,0.6702495865675305,-0.7421357636619155
374,-0.6132462621,-0.01265611406,0.2031458914,0.047572795300000005,-0.025024999080000002,0.127924999,0.5827499866,0.07840000372,-9.104200196,1.156400007,-0.898127705363696,0.43973472100590605,0.6868502733832644,-0.7267989419043859
375,-0.6120957136,-0.013423151340000002,0.2438337356,-0.003230929375,-0.025024999080000002,0.1438500047,0.5272749853,-0.3332000181,-8.28100028,1.1172000009999998,-0.907904755319289,0.419176520416664,0.7031001164581825,-0.7110908705900324
376,-0.6082605124,-0.01380666997,0.38252016899999997,-0.02728777565,-0.025024999080000002,0.1438500047,0.5272749853,-0.3332000181,-8.28100028,1.1172000009999998,-0.9172113015054528,0.3984010898462418,0.7189908153577472,-0.6950195734158872
377,-0.606726408,-0.013423151340000002,0.3676858246,-0.003861457109,-0.020825001,0.16852500199999998,0.4226249933,0.3430000015,-8.496599841,1.068199974,-0.9260425209878053,0.37741919575261446,0.734514253098589,-0.678593259615082
378,-0.6063429117,-0.013423151340000002,0.29400724170000003,-0.01266078278,-0.020825001,0.16852500199999998,0.4226249933,0.3430000015,-8.496599841,1.068199974,-0.934393837160671,0.3562417115894169,0.74966250029467,-0.6618203197635623
379,-0.6059594154,-0.01227259543,0.22587758300000002,0.04902729392,-0.01014999971,0.20684999469999998,0.4033749866,0.35279998479999997,-8.575,1.323000053,-0.9422609221188204,0.33487961217098633,0.7644278192076236,-0.6447093214941728
380,-0.6044253111,-0.01227259543,0.2364202589,0.03733271733,-0.01014999971,0.20684999469999998,0.4033749866,0.35279998479999997,-8.575,1.323000053,-0.9496396989003192,0.3133439679848825,0.7788026676991961,-0.6272690051203036
381,-0.6028912663,-0.01227259543,0.2405071259,0.02774675749,-0.015399999919999999,0.2346749973,0.3830749893,0.4018000111,-8.437800014,1.352399966,-0.9565263435993347,0.29164593945482487,0.7927797030837772,-0.6095082791713318
382,-0.6005901097999999,-0.01227259543,0.31032380460000003,0.02402330935,-0.015399999919999999,0.2346749973,0.3830749893,0.4018000111,-8.437800014,1.352399966,-0.9629172873477994,0.2697967711570243,0.8063517858790513,-0.591436215842135
383,-0.5940703154,-0.01227259543,0.5669841766,0.013697374609999998,-0.0409499985,0.2656500053,0.31919999600000004,0.2155999988,-7.840000117000001,1.303400013,-0.9688092181649063,0.2478077859929,0.8195119834528536,-0.5730620463590045
384,-0.5898516178000001,-0.011505558159999998,0.6744138002,0.04638841003000001,-0.0409499985,0.2656500053,0.31919999600000004,0.2155999988,-7.840000117000001,1.303400013,-0.974199082673479,0.22569037932121078,0.8322535735643604,-0.5543951562643309
385,-0.5802636743,-0.009971483611,0.9529659152,0.1184265316,-0.07402500033,0.3253250027,0.09607499599,0.4018000111,-7.163800061,1.6365999580000001,-0.9790840876823229,0.20345601305263358,0.8445700477978201,-0.5354450806224555
386,-0.571059227,-0.009587964974,1.199551225,0.1036012694,-0.07402500033,0.3253250027,0.09607499599,0.4018000111,-7.163800061,1.6365999580000001,-0.983461701633742,0.18111620970985606,0.8564551148870561,-0.5162214991491536
387,-0.5656899214,-0.006903334986,1.230435491,0.2140711695,-0.06877500117,0.433125,-0.059675001500000005,0.7545999959,-7.712600005,1.5091999919999999,-0.9873296559154696,0.15868254645625127,0.8679027039290499,-0.49673423126722793
388,-0.5561019778,-0.001150555792,1.397680759,0.4576466382,-0.06877500117,0.433125,-0.059675001500000005,0.7545999959,-7.712600005,1.5091999919999999,-0.9906859460363308,0.13616664909624665,0.8789069674849659,-0.476993231090737
389,-0.5453634857999999,0.004985741805,1.51858151,0.66127491,-0.02712499917,0.529199996,-0.20474999670000002,0.6467999965,-7.016800201000001,1.75420005,-0.9935288326650311,0.11358018605047497,0.8894622845670278,-0.4570085823404235
390,-0.537309587,0.01112203952,1.537606955,0.8134961128,-0.02712499917,0.529199996,-0.20474999670000002,0.6467999965,-7.016800201000001,1.75420005,-0.9958568425315313,0.09093486230884718,0.8995632635097247,-0.43679049319294205
391,-0.5277215838,0.01687481813,1.649603486,0.9013494849,-0.051625000830000004,0.563324976,-0.3563000107,0.1666000091,-8.418200266,1.156400007,-0.9976687691905393,0.06824241336467085,0.9092047447238771,-0.41634929106651464
392,-0.5238864422,0.02301111631,1.504036665,0.9899225235,-0.08470000267000001,0.6060250186999999,-0.385175004,-0.9309999883,-9.848999953,1.048600008,-0.9989636736467276,0.04551459913296355,0.9183818033321611,-0.39569541734567487
393,-0.5238864422,0.02301111631,1.504036665,0.9899225235,-0.08470000267000001,0.6060250186999999,-0.385175004,-0.9309999883,-9.848999953,1.048600008,-0.9997408848413492,0.02276319785610572,0.9270897516847405,-0.3748394220477965
394,-0.5054775476,0.034133154900000004,1.512963295,0.9453581571999999,-0.08470000267000001,0.6060250186999999,-0.385175004,-0.9309999883,-9.848999953,1.048600008,-1.0,1.2246467991473532e-16,0.9353241417537211,-0.35379195843414113
395,-0.5008752942,0.03643426672,1.4309399130000002,0.864120245,-0.062299999,0.6475,-0.37975001340000003,-2.048200062,-11.093599699999999,0.7545999959,-0.9997408848413492,-0.022763197856105477,0.9430807674052089,-0.3325637775681565
396,-0.4928213954,0.03873537853,1.483222365,0.8055789470999999,-0.062299999,0.6475,-0.37975001340000003,-2.048200062,-11.093599699999999,0.7545999959,-0.9989636736467276,-0.04551459913296375,0.9503556665478066,-0.31116572282382643
397,-0.4874521494,0.04026945308,1.38876009,0.6359546781000001,-0.001575000063,0.6742749786,-0.3445750093,-2.46960004,-12.79879994,-0.06860000212,-0.9976687691905392,-0.06824241336467105,0.9571451231564524,-0.2896087243468671
398,-0.48169937729999995,0.04142000899,1.326197267,0.5269802213,-0.001575000063,0.6742749786,-0.3445750093,-2.46960004,-12.79879994,-0.06860000212,-0.9958568425315313,-0.0909348623088465,0.9634456691705703,-0.2679037934715969
399,-0.47786417600000003,0.04180352762,1.181355119,0.40909546609999997,0.10832500099999999,0.663599968,-0.2528749967,-1.6365999580000001,-13.05360017,-1.038799988,-0.9935288326650312,-0.11358018605047472,0.9692540862655586,-0.24606201709633474
400,-0.475179553,0.04218704626,1.008013368,0.3142979741,0.10832500099999999,0.663599968,-0.2528749967,-1.6365999580000001,-13.05360017,-1.038799988,-0.9906859460363308,-0.13616664909624643,0.974567407496712,-0.22409455202020798
401,-0.4713443816,0.04218704626,0.9448060393000001,0.2294555902,0.2567250013,0.6198499679999999,-0.181299994,-1.440599999,-12.03440044,-1.528800032,-0.9873296559154696,-0.15868254645625104,0.9793829188147405,-0.2020126192442426
402,-0.4713443816,0.04295408353,0.696513772,0.20613734420000002,0.2567250013,0.6198499679999999,-0.181299994,-1.440599999,-12.03440044,-1.528800032,-0.983461701633742,-0.18111620970985584,0.9836981604521077,-0.17982749823967276
403,-0.46904325490000004,0.0425705649,0.6342903376,0.12887613480000001,0.3687249947,0.5675250053,-0.16642500400000002,-1.8521999569999998,-10.72119982,-1.372000006,-0.9790840876823229,-0.2034560130526338,0.9875109281794826,-0.15755052118636945
404,-0.4675091803,0.04295408353,0.5570523739,0.10996569689999999,0.3687249947,0.5675250053,-0.16642500400000002,-1.8521999569999998,-10.72119982,-1.372000006,-0.974199082673479,-0.225690379321211,0.990819274431662,-0.13519306718436008
405,-0.4663586318,0.04410463944,0.47117429969999997,0.14286604519999999,0.4476499987,0.5141499853,-0.19739999530000002,-1.724799991,-10.04499977,-1.0878000140000001,-0.9688092181649065,-0.24780778599289932,0.9936215093023881,-0.11276655644136753
406,-0.46367400880000004,0.0437211208,0.48012438420000003,0.08898544312000001,0.4476499987,0.5141499853,-0.19739999530000002,-1.724799991,-10.04499977,-1.0878000140000001,-0.9629172873477994,-0.26979677115702405,0.9959162014075551,-0.09028244443935955
407,-0.4617564082,0.04525519535,0.4484230876,0.1435208023,0.46375,0.4789750147,-0.212275002,-1.8521999569999998,-9.927400112,-0.6860000029000001,-0.9565263435993349,-0.29164593945482464,0.99770217861636,-0.06775221608308443
408,-0.4621399343,0.04563871399,0.3058867753,0.1258835942,0.46375,0.4789750147,-0.212275002,-1.8521999569999998,-9.927400112,-0.6860000029000001,-0.9496396989003193,-0.3133439679848823,0.9989785286500293,-0.04518737983356056
409,-0.460989356,0.04640575126,0.28798002,0.1279887855,0.45412501340000005,0.4576249933,-0.1524250007,-2.263800061,-12.12259989,-0.4410000175,-0.9422609221188205,-0.3348796121709861,0.9997445995478118,-0.022599461829550437
410,-0.4571541846,0.04678926989,0.4278553128,0.1134909242,0.45412501340000005,0.4576249933,-0.1524250007,-2.263800061,-12.12259989,-0.4410000175,-0.934393837160671,-0.35624171158941714,1.0,-2.4492935982947064e-16
411,-0.4552365839,0.04678926989,0.44407746200000003,0.0836878866,0.33774998659999994,0.36050000670000004,-0.01907500058,-3.9004000189999997,-11.26999977,-0.07840000372,-0.9260425209878052,-0.3774191957526147,1.0,0.0
412,-0.4521684349,0.04640575126,0.5094225407,0.04289771989,0.2129750013,0.3050250053,-0.055475001339999996,-3.929799932,-11.025,-0.18619999399999998,-0.9172113015054532,-0.3984010898462412,0.9996711682306798,0.025642843218095457
413,-0.4521684349,0.04640575126,0.5094225407,0.04289771989,0.2129750013,0.3050250053,-0.055475001339999996,-3.929799932,-11.025,-0.18619999399999998,-0.9079047553192892,-0.41917652041666376,0.9986848891833844,0.0512688220731793
414,-0.4395123124,0.04525519535,0.7805962563,-0.023886609819999998,0.2129750013,0.3050250053,-0.055475001339999996,-3.929799932,-11.025,-0.18619999399999998,-0.8981277053636961,-0.4397347210059058,0.9970418114978818,0.07686108329331658
415,-0.4345265925,0.04410463944,0.9240319133,-0.08531215787,0.08067500234,0.31884998800000003,-0.144024992,-4.0669999180000005,-11.554200199999999,0.02940000026,-0.8878852184023753,-0.46006503773115204,0.9947430157664574,0.10240279578143144
416,-0.4276232421,0.04218704626,1.065440178,-0.1685295999,0.08067500234,0.31884998800000003,-0.144024992,-4.0669999180000005,-11.554200199999999,0.02940000026,-0.8771826024025944,-0.4801569348059154,0.991790013823246,0.12787716168450602
417,-0.4237880707,0.04065297171,1.007655859,-0.2082870156,-0.065625,0.3519250107,-0.135449996,-4.517799956,-11.98540049,0.17639999239999998,-0.8660254037844386,-0.5000000000000001,0.9881847477499557,0.1532674274409159
418,-0.4207199216,0.03873537853,0.9060970545,-0.2566833794,-0.065625,0.3519250107,-0.135449996,-4.517799956,-11.98540049,0.17639999239999998,-0.8544194045464886,-0.5195839500354337,0.9839295885986297,0.17855689479863668
419,-0.4172682464,0.03643426672,0.8454772234000001,-0.3129760921,-0.1604750013,0.36907500270000004,-0.084174999,-4.566799908999999,-12.00500023,0.24500000370000002,-0.8423706192694119,-0.5388986359155751,0.9790273348322929,0.20372893179707555
420,-0.4138165712,0.035667229439999996,0.8037580252,-0.282140851,-0.1604750013,0.36907500270000004,-0.084174999,-4.566799908999999,-12.00500023,0.24500000370000002,-0.8298852919990252,-0.5579340481846333,0.9734812104845048,0.2287669837053053
421,-0.4107484221,0.033366117630000004,0.7475072145,-0.3348637819,-0.19897499800000001,0.3519250107,-0.04375,-4.027800131,-11.44639983,0.2841999918,-0.8169698930104421,-0.576680322114867,0.9672948630390295,0.2536545839095074
422,-0.407296747,0.030681489039999996,0.721565485,-0.3905310929,-0.19897499800000001,0.3519250107,-0.04375,-4.027800131,-11.44639983,0.2841999918,-0.8036311154549783,-0.5951277428187896,0.9604723610310193,0.2783753647424632
423,-0.4038451016,0.02492870949,0.7146240473000001,-0.5940843821,-0.1872499967,0.35524998659999996,-0.07139999866,-3.7338001189999996,-10.97600005,-0.2548000053,-0.7898758718915586,-0.6132667502837164,0.9530181913712872,0.3029130682479722
424,-0.40346157549999995,0.02071000449,0.5484184027000001,-0.6655130386,-0.1872499967,0.35524998659999996,-0.07139999866,-3.7338001189999996,-10.97600005,-0.2548000053,-0.7757112907044198,-0.6310879443260529,0.9449372563954292,0.3272515568731168
425,-0.40039342640000003,0.01265611406,0.5720888376,-0.9190632701000001,-0.1476999927,0.345625,0.0033249999579999996,-3.7239999530000003,-11.40720034,-0.5782000035,-0.7611447124089645,-0.6485820894627562,0.9362348706397372,0.35137482408134274
426,-0.3957912028,0.004985741805,0.6755493879000001,-1.086305499,-0.1476999927,0.345625,0.0033249999579999996,-3.7239999530000003,-11.40720034,-0.5782000035,-0.7461836858476859,-0.6657401196974402,0.9269167573460217,0.37526700487937414
427,-0.39118897909999994,-0.004985741805,0.7424011229999999,-1.336086869,-0.1604750013,0.3445750093,0.07052500367,-3.5084001000000002,-9.927400112,-1.0878000140000001,-0.7308359642781244,-0.6825531432186539,0.9169890446976451,0.3989123862510417
428,-0.3854362071,-0.014573707250000002,0.8516139984000001,-1.496106982,-0.1604750013,0.3445750093,0.07052500367,-3.5084001000000002,-9.927400112,-1.0878000140000001,-0.7151095013548996,-0.6990124470078819,0.9064582617892382,0.4222954174911598
429,-0.37814936039999997,-0.02492870949,1.014812469,-1.650294542,-0.1391249967,0.37327499869999997,0.041650002,-3.0281998569999997,-10.30960045,-1.058400027,-0.6990124470078821,-0.7151095013548994,0.8953313343327531,0.44540072043265916
430,-0.37239655850000003,-0.03681778535,1.0484571459999998,-1.835431695,-0.1391249967,0.37327499869999997,0.041650002,-3.0281998569999997,-10.30960045,-1.058400027,-0.6825531432186541,-0.730835964278124,0.8836155801026753,0.46821309956024587
431,-0.36434268950000004,-0.04755630717,1.192877293,-1.919378042,-0.11252499699999999,0.40967499729999995,0.05442499816000001,-2.998799944,-10.02540002,-0.9701999947,-0.6657401196974404,-0.7461836858476856,0.8713187041233893,0.49071755200393796
432,-0.35820639130000004,-0.05906186625,1.207998514,-2.0175499919999997,-0.10290000199999999,0.39794999600000003,0.03430000067,-2.42059994,-9.995999813,-1.048600008,-0.6485820894627559,-0.7611447124089649,0.8584487936018661,0.5128992774059061
433,-0.35820639130000004,-0.05906186625,1.207998514,-2.0175499919999997,-0.10290000199999999,0.39794999600000003,0.03430000067,-2.42059994,-9.995999813,-1.048600008,-0.6310879443260531,-0.7757112907044196,0.8450143126090012,0.5347436876541296
434,-0.3413315713,-0.08705872297,1.26045537,-2.0992748740000002,-0.10290000199999999,0.39794999600000003,0.03430000067,-2.42059994,-9.995999813,-1.048600008,-0.6132667502837162,-0.7898758718915586,0.8310240965131039,0.5562364164764648
435,-0.3394139707,-0.09204446524,1.225172758,-2.031458855,-0.12634999630000002,0.3360000134,0.05232500017,-2.479399914,-10.10380018,-1.12700002,-0.5951277428187901,-0.8036311154549779,0.8164873461691986,0.5773633288888196
436,-0.3340446949,-0.10163243109999999,1.189072728,-2.000449896,-0.12634999630000002,0.3360000134,0.05232500017,-2.479399914,-10.10380018,-1.12700002,-0.5766803221148673,-0.8169698930104419,0.8014136218679566,0.598110530491216
437,-0.3286754489,-0.1112203971,1.1615660190000001,-1.9712657930000002,-0.155224998,0.2740499973,0.100449996,-2.410800067,-9.751000047,-1.391600046,-0.5579340481846332,-0.8298852919990253,0.7858128370482423,0.6184643766056316
438,-0.3240732253,-0.1211918816,1.095405459,-1.973077416,-0.155224998,0.2740499973,0.100449996,-2.410800067,-9.751000047,-1.391600046,-0.5388986359155757,-0.8423706192694115,0.7696952517774059,0.6384114812496058
439,-0.3171698749,-0.13116335869999998,1.170318723,-1.982592344,-0.1893499947,0.214375,0.12810000300000002,-2.146199968,-9.486399948999999,-1.420999959,-0.5195839500354336,-0.8544194045464886,0.7530714660036109,0.6579387259397127
440,-0.3137182295,-0.1411348432,1.053842783,-1.993172288,-0.1893499947,0.214375,0.12810000300000002,-2.146199968,-9.486399948999999,-1.420999959,-0.5000000000000004,-0.8660254037844384,0.735952412584635,0.6770332683191095
441,-0.3083489537,-0.1511063278,1.053890467,-2.004910946,-0.21927499530000003,0.162050004,0.14839999199999998,-1.950200009,-9.123799944,-1.323000053,-0.4801569348059157,-0.8771826024025942,0.7183493500977276,0.6956825506034864
442,-0.3029797077,-0.1606943011,1.052518487,-1.998030901,-0.21927499530000003,0.162050004,0.14839999199999998,-1.950200009,-9.123799944,-1.323000053,-0.46006503773115265,-0.887885218402375,0.700273855435255,0.713874307839863
443,-0.297993958,-0.1691317111,1.04889667,-1.922404408,-0.2373000073,0.125825001,0.16117500070000002,-1.93059997,-8.810199893,-1.25440006,-0.43973472100590605,-0.898127705363696,0.6817378161909995,0.7315965759728014
444,-0.2937752604,-0.1791031957,0.9912347793999999,-1.9472327230000002,-0.2373000073,0.125825001,0.16117500070000002,-1.93059997,-8.810199893,-1.25440006,-0.41917652041666403,-0.907904755319289,0.662753422842123,0.7488376997127282
445,-0.2891730368,-0.18907468019999998,0.9675794244,-1.958547473,-0.24482499600000002,0.10447499630000001,0.1569750047,-1.842399937,-8.516200173,-0.9603999749,-0.398401089846241,-0.9172113015054532,0.6433331607319341,0.7655863402011946
446,-0.2822696865,-0.1975120753,1.079941392,-1.8922579290000001,-0.24482499600000002,0.10447499630000001,0.1569750047,-1.842399937,-8.516200173,-0.9603999749,-0.3774191957526145,-0.9260425209878052,0.6234898018587335,0.7818314824680298
447,-0.27881804109999997,-0.20633301140000002,0.9810372591,-1.8549816609999998,-0.249024992,0.084174999,0.1431500053,-1.813000023,-8.555400252,-0.9603999749,-0.35624171158941736,-0.9343938371606709,0.6032363964761365,0.7975624426754845
448,-0.2734487653,-0.21515393260000001,1.004148722,-1.8227407930000001,-0.249024992,0.084174999,0.1431500053,-1.813000023,-8.555400252,-0.9603999749,-0.3348796121709864,-0.9422609221188204,0.5825862645103962,0.8127688751446027
449,-0.26846301559999997,-0.22282430530000003,1.014501333,-1.741066337,-0.242724998,0.07349999666,0.1184749997,-1.803200004,-8.565200126,-1.028999968,-0.3133439679848821,-0.9496396989003193,0.5615529868003746,0.8274407791591966
450,-0.26232671739999996,-0.22896060350000003,1.086004853,-1.59489429,-0.242724998,0.07349999666,0.1184749997,-1.803200004,-8.565200126,-1.028999968,-0.29164593945482536,-0.9565263435993346,0.5401503961659201,0.8415685055429531
451,-0.2592585683,-0.236247465,0.9637979865,-1.541683793,-0.23099999670000002,0.07349999666,0.0875,-1.6267999380000002,-8.516200173,-1.009400001,-0.26979677115702433,-0.9629172873477992,0.5183925683105249,0.8551427630053462
452,-0.2542728484,-0.2423837632,0.9663169979999999,-1.4480321409999999,-0.2203250027,0.07770000099999999,0.04375,-1.6365999580000001,-8.68279978,-1.303400013,-0.2478077859928996,-0.9688092181649064,0.4962938125642501,0.8681546242521784
453,-0.2542728484,-0.2423837632,0.9663169979999999,-1.4480321409999999,-0.2203250027,0.07770000099999999,0.04375,-1.6365999580000001,-8.68279978,-1.303400013,-0.22569037932121086,-0.974199082673479,0.4738686624729987,0.880595531856738
454,-0.2423837632,-0.2550398707,0.9134668708,-1.1717283729999999,-0.2203250027,0.07770000099999999,0.04375,-1.6365999580000001,-8.68279978,-1.303400013,-0.20345601305263453,-0.9790840876823227,0.4511318662403344,0.8924573038877059
455,-0.2381650507,-0.2573409975,0.9944816828,-1.105376005,-0.203174994,0.08942500233999999,0.01610000029,-1.8228000430000002,-8.849399972,-1.372000006,-0.18111620970985615,-0.983461701633742,0.4280983770281254,0.9037321392901134
456,-0.2331793159,-0.26079264280000003,1.054549575,-0.9915376901999999,-0.203174994,0.08942500233999999,0.01610000029,-1.8228000430000002,-8.849399972,-1.372000006,-0.15868254645625135,-0.9873296559154696,0.4047833431223938,0.9144126230158125
457,-0.22896060350000003,-0.2638607919,1.014057994,-0.8882662654000001,-0.181825006,0.1097249997,-0.013825000380000002,-1.950200009,-9.065000117,-1.342599946,-0.1361666490962463,-0.9906859460363308,0.3812020979708416,0.9244917309000816
458,-0.2251254171,-0.26654544469999997,0.9513421655,-0.7983665466,-0.181825006,0.1097249997,-0.013825000380000002,-1.950200009,-9.065000117,-1.342599946,-0.11358018605047503,-0.9935288326650311,0.35737015009860074,0.9339628342811632
459,-0.21822208170000001,-0.2696135938,1.013917089,-0.7451706529000001,-0.1680000067,0.128974998,-0.02765000075,-1.8914000359999998,-9.231599724,-1.175999974,-0.0909348623088468,-0.9958568425315313,0.33330317290884165,0.942819704359693
460,-0.21553745870000002,-0.2719146907,0.9330199956999999,-0.6791587472,-0.1680000067,0.128974998,-0.02765000075,-1.8914000359999998,-9.231599724,-1.175999974,-0.06824241336467046,-0.9976687691905393,0.30901699437494745,0.9510565162951535
461,-0.20940116050000002,-0.2707641423,0.9545201063,-0.4374490976,-0.14875,0.1417500067,-0.02555000067,-1.734600011,-8.96700021,-0.9603999749,-0.04551459913296361,-0.9989636736467276,0.28452758663103245,0.9586678530366606
462,-0.20518244800000002,-0.2707641423,0.9168114065999999,-0.31549301739999996,-0.14875,0.1417500067,-0.02555000067,-1.734600011,-8.96700021,-0.9603999749,-0.022763197856106226,-0.9997408848413492,0.25985105546765286,0.9656487088855589
463,-0.1998131871,-0.2719146907,0.9593227506,-0.2906906009,-0.111474998,0.1438500047,-0.1002750003,-1.323000053,-8.477000093,-0.9603999749,-1.8369701987210297e-16,-1.0,0.23500362973961503,0.971994492787488
464,-0.1944439411,-0.2715311646,0.9950555563,-0.2064441442,-0.111474998,0.1438500047,-0.1002750003,-1.323000053,-8.477000093,-0.9603999749,0.02276319785610586,-0.9997408848413492,0.2100016506928493,0.9777010313517515
465,-0.1894581914,-0.2707641423,1.010766268,-0.11096411199999999,-0.09117500066999999,0.1161999977,-0.12372500300000001,-1.5484000709999999,-8.72199986,-1.264199933,0.04551459913296325,-0.9989636736467276,0.18486156121736858,0.9827645715960039
466,-0.1863900423,-0.2707641423,0.9075027704,-0.08048411459,-0.09117500066999999,0.1161999977,-0.12372500300000001,-1.5484000709999999,-8.72199986,-1.264199933,0.06824241336467099,-0.9976687691905392,0.1595998950333791,0.9871817834144502
467,-0.1806372702,-0.2707641423,0.970297277,-0.05540366097999999,-0.063349998,0.11935000300000001,-0.09485000133999999,-1.646399978,-8.575,-1.470000058,0.09093486230884731,-0.9958568425315312,0.1342332658176553,0.9909497617679348
468,-0.177185595,-0.2711476684,0.8978083729999999,-0.06330090015999999,-0.063349998,0.11935000300000001,-0.09485000133999999,-1.646399978,-8.575,-1.470000058,0.11358018605047468,-0.9935288326650312,0.10877835627733086,0.9940660285944802
469,-0.1710492969,-0.2715311646,0.9770547748,-0.07082854956000001,-0.03465000033,0.1161999977,-0.1034249973,-1.567999965,-8.653400159,-1.4504000190000002,0.1361666490962459,-0.9906859460363309,0.08325190717828937,0.9965285344390182
470,-0.1656800359,-0.2711476684,1.011254072,-0.04435013607,-0.03465000033,0.1161999977,-0.1034249973,-1.567999965,-8.653400159,-1.4504000190000002,0.15868254645625096,-0.9873296559154697,0.057670706335374446,0.998335659801241
471,-0.1599272639,-0.2699970901,1.056762934,0.025651866569999997,-0.01434999987,0.1055250037,-0.1099000037,-1.6267999380000002,-9.035599911,-1.411199939,0.18111620970985576,-0.9834617016337421,0.03205157757165511,0.9994862162006879
472,-0.157242626,-0.2699970901,0.9186711906999999,0.023753512650000003,0.0005249999883000001,0.081025002,-0.1086750007,-1.5484000709999999,-9.211999977,-1.283799973,0.20345601305263417,-0.9790840876823228,0.006411369654010991,0.999979446958366
473,-0.157242626,-0.2699970901,0.9186711906999999,0.023753512650000003,0.0005249999883000001,0.081025002,-0.1086750007,-1.5484000709999999,-9.211999977,-1.283799973,0.2256903793212105,-0.9741990826734791,-0.019233054787687314,0.99981502769439
474,-0.1453535557,-0.2680795193,0.9548427463,0.1045932025,0.0005249999883000001,0.081025002,-0.1086750007,-1.5484000709999999,-9.211999977,-1.283799973,0.2478077859928993,-0.9688092181649065,-0.044864830350515084,0.9989930665413146
475,-0.143435955,-0.2680795193,0.8929882645999999,0.09350316226,0.01242499962,0.048999999169999996,-0.1076250017,-1.470000058,-9.36879971,-1.24460004,0.269796771157024,-0.9629172873477994,-0.07046709995025405,0.9975141040730205
476,-0.1384502202,-0.2680795193,0.9054129124,0.06865572929,0.01242499962,0.048999999169999996,-0.1076250017,-1.470000058,-9.36879971,-1.24460004,0.29164593945482503,-0.9565263435993347,-0.09602302590768176,0.9953791129491982
477,-0.1330809593,-0.26846301559999997,0.9475826025,0.023850843309999998,0.019774999919999998,0.013825000380000002,-0.10447499630000001,-1.460200039,-9.496199822000001,-1.146599987,0.3133439679848818,-0.9496396989003194,-0.12151580102210031,0.9925894972756649
478,-0.1296292841,-0.2673124671,0.8762297034000001,0.07833156735,0.019774999919999998,0.013825000380000002,-0.10447499630000001,-1.460200039,-9.496199822000001,-1.146599987,0.33487961217098605,-0.9422609221188205,-0.14692865962481796,0.9891470916809362
479,-0.12426003070000001,-0.26846301559999997,0.9280503988,0.0009688287973,0.02835000008,-0.002274999917,-0.10657500269999999,-1.587600005,-9.035599911,-1.313200033,0.3562417115894171,-0.934393837160671,-0.17224488860531884,0.9850541601096567
480,-0.1200413257,-0.2676959932,0.9116293192,0.037213385110000004,0.02835000008,-0.002274999917,-0.10657500269999999,-1.587600005,-9.035599911,-1.313200033,0.3774191957526142,-0.9260425209878054,-0.19744783840286725,0.9803133943336871
481,-0.11658965800000001,-0.2673124671,0.8468891978,0.04877177998,0.039025000330000004,-0.050224998,-0.124775002,-1.675800037,-9.035599911,-1.440599999,0.39840108984624073,-0.9172113015054534,-0.22252093395631456,0.9749279121818236
482,-0.1112203971,-0.26654544469999997,0.91072613,0.08354021609000001,0.039025000330000004,-0.050224998,-0.124775002,-1.675800037,-9.035599911,-1.440599999,0.4191765204166637,-0.9079047553192892,-0.2474476856049146,0.9689012554893153
483,-0.1073852107,-0.26654544469999997,0.8895463943,0.057731632139999996,0.053899998660000004,-0.08014999866,-0.14297500130000002,-1.470000058,-8.976800084,-1.4895999519999998,0.43973472100590577,-0.8981277053636961,-0.2722116999329711,0.9622373877685289
484,-0.1035500243,-0.2650113702,0.8571509123000001,0.12412802880000001,0.053899998660000004,-0.08014999866,-0.14297500130000002,-1.470000058,-8.976800084,-1.4895999519999998,0.46006503773115237,-0.8878852184023751,-0.2967966905511906,0.9549406916022904
485,-0.0989478007,-0.2653948665,0.8735508919,0.0735481903,0.063525002,-0.1067499983,-0.18235000129999998,-1.76400007,-9.035599911,-1.058400027,0.4801569348059153,-0.8771826024025944,-0.32118648880764555,0.9470159657616213
486,-0.09396205842000001,-0.2657783926,0.9060084820000001,0.027082379910000003,0.063525002,-0.1067499983,-0.18235000129999998,-1.76400007,-9.035599911,-1.058400027,0.5,-0.8660254037844386,-0.3453650544213075,0.9384684220497604
487,-0.08935983479000001,-0.26654544469999997,0.9135970473,-0.02530771494,0.07630000234,-0.12180000070000001,-0.201600008,-1.7933999840000001,-8.790600145,-0.7938000023,0.5195839500354339,-0.8544194045464883,-0.3693164860311567,0.9293036818745519
488,-0.08360705525,-0.26692894100000003,0.9935296774,-0.0347857587,0.07630000234,-0.12180000070000001,-0.201600008,-1.7933999840000001,-8.790600145,-0.7938000023,0.5388986359155754,-0.8423706192694117,-0.3930250316539238,0.9195277725514506
489,-0.08130594343,-0.2688465416,0.8592383862,-0.11501286919999999,0.105175004,-0.1293249977,-0.2325749993,-1.558199945,-8.672999907000001,-0.8133999690000001,0.5579340481846328,-0.8298852919990255,-0.4164750990435993,0.9091471233395749
490,-0.07593668252,-0.2692300677,0.9121206403000001,-0.11778108779999999,0.105175004,-0.1293249977,-0.2325749993,-1.558199945,-8.672999907000001,-0.8133999690000001,0.5766803221148669,-0.8169698930104422,-0.43965126594588205,0.898168561213419
491,-0.07095094025,-0.2688465416,0.9210187196999999,-0.06977149098999999,0.1350999963,-0.13772499800000002,-0.3211250067,-1.136799967,-8.202600121,-0.7644000157999999,0.5951277428187898,-0.8036311154549781,-0.4625382902408355,0.886599306373
492,-0.06481464207,-0.2688465416,1.004425764,-0.053143046799999996,0.1575,-0.1473500013,-0.459900012,-0.9016000018000001,-7.957599771,-0.8330000087999999,0.6132667502837159,-0.789875871891559,-0.4851211199670721,0.8744469674953957
493,-0.06481464207,-0.2688465416,1.004425764,-0.053143046799999996,0.1575,-0.1473500013,-0.459900012,-0.9016000018000001,-7.957599771,-0.8330000087999999,0.6310879443260528,-0.7757112907044199,-0.507384903220882,0.8617195367307952
494,-0.04832334444,-0.27038061620000003,1.216899872,-0.07990188897,0.1575,-0.1473500013,-0.459900012,-0.9016000018000001,-7.957599771,-0.8330000087999999,0.6485820894627562,-0.7611447124089645,-0.5293149979237873,0.8484253844463525
495,-0.04602223262,-0.2719146907,1.140399098,-0.1521191299,0.1734249973,-0.179375,-0.5846749972999999,-0.7545999959,-7.408799827,-1.058400027,0.6657401196974404,-0.7461836858476856,-0.5508969814521024,0.8345732537213028
496,-0.03720130399,-0.2734487653,1.303046346,-0.19772806760000003,0.1734249973,-0.179375,-0.5846749972999999,-0.7545999959,-7.408799827,-1.058400027,0.6825531432186535,-0.7308359642781246,-0.5721166601221698,0.8201722545969559
497,-0.029147414489999995,-0.275749892,1.391380668,-0.2627425492,0.1478749967,-0.2072000027,-0.7544250106999999,-0.4115999945,-7.761599958,-1.313200033,0.6990124470078818,-0.7151095013548996,-0.5929600785250261,0.805231858085356
498,-0.02071000449,-0.281119138,1.4789540769999998,-0.47585016490000004,0.1478749967,-0.2072000027,-0.7544250106999999,-0.4115999945,-7.761599958,-1.313200033,0.7151095013548994,-0.6990124470078821,-0.6134135287043667,0.7897618899405422
499,-0.011505558159999998,-0.2868719101,1.5730423930000001,-0.6502975821,0.09555000067,-0.235899992,-0.8161999893,-0.2841999918,-8.604400206000001,-2.165800008,0.7308359642781244,-0.6825531432186538,-0.6334635591717699,0.7737725241965068
500,-0.0007670372142,-0.2956928313,1.724048495,-0.9476832151000001,0.09555000067,-0.235899992,-0.8161999893,-0.2841999918,-8.604400206000001,-2.165800008,0.7461836858476854,-0.6657401196974407,-0.6530969837532488,0.7572742764761052
501,0.009587964974,-0.3022126555,1.822903156,-1.049651742,0.07314999700000001,-0.2444750047,-0.7906500053,-0.39199999119999995,-8.526000047,-1.861999977,0.7611447124089649,-0.6485820894627559,-0.6723008902613168,0.7402779970753155
502,0.01994296722,-0.3098830283,1.894238949,-1.1745048759999999,0.07314999700000001,-0.2444750047,-0.7906500053,-0.39199999119999995,-8.526000047,-1.861999977,0.7757112907044196,-0.6310879443260531,-0.6910626489868645,0.7227948638273916
503,0.0302979704,-0.3171698749,1.946983814,-1.242557406,0.0421750015,-0.2434249973,-0.8524249840000001,0.1274000026,-9.290400136,-1.940399989,0.7898758718915586,-0.6132667502837162,-0.7093699210052578,0.7048363747516116
504,0.04026945308,-0.3256072998,1.961783171,-1.355990171,0.0421750015,-0.2434249973,-0.8524249840000001,0.1274000026,-9.290400136,-1.940399989,0.8036311154549779,-0.5951277428187901,-0.7272106662911977,0.68641434049145
505,0.05177501217,-0.3321271241,2.051956654,-1.3452392819999999,0.0442749995,-0.2700250053,-0.826875,0.2254000004,-9.633399808,-1.813000023,0.8169698930104419,-0.5766803221148673,-0.7445731516370071,0.6675408765471478
506,0.0605959408,-0.3378798962,1.987445474,-1.29632616,0.0442749995,-0.2700250053,-0.826875,0.2254000004,-9.633399808,-1.813000023,0.8298852919990253,-0.5579340481846332,-0.7614459583691344,0.6482283953077884
507,0.07018390297999999,-0.3436326683,1.97423172,-1.259380817,0.05284999967,-0.3137750053,-0.8065750026999999,0.6467999965,-9.956800317999999,-1.76400007,0.8423706192694115,-0.5388986359155757,-0.7778179898577976,0.6284895978881234
508,0.07938835025,-0.348618418,1.945744753,-1.195560694,0.05284999967,-0.3137750053,-0.8065750026999999,0.6467999965,-9.956800317999999,-1.76400007,0.8544194045464886,-0.5195839500354336,-0.7936784788148326,0.608337465775513
509,0.08820927888,-0.3536041677,1.893075824,-1.087228656,0.053899998660000004,-0.3564750147,-0.7638750267000001,0.9603999749,-10.40760036,-2.077599975,0.8660254037844384,-0.5000000000000004,-0.8090169943749473,0.5877852522924732
510,0.09703020751000001,-0.3578228652,1.849335551,-1.0221008059999999,0.053899998660000004,-0.3564750147,-0.7638750267000001,0.9603999749,-10.40760036,-2.077599975,0.8771826024025942,-0.4801569348059157,-0.8238234489557217,0.5668464738804497
511,0.10585113609999999,-0.3601239622,1.814491034,-0.879361093,0.067900002,-0.40774998659999995,-0.74375,1.411199939,-10.82900019,-1.567999965,0.8878852184023749,-0.4600650377311527,-0.8380881048918406,0.5455349012105487
512,0.1146720648,-0.3612745404,1.793833613,-0.7480902671999999,0.09555000067,-0.437675004,-0.694574976,1.352399966,-10.97600005,-1.362199986,0.898127705363696,-0.4397347210059061,-0.8518015808392043,0.5238645501270653
513,0.1146720648,-0.3612745404,1.793833613,-0.7480902671999999,0.09555000067,-0.437675004,-0.694574976,1.352399966,-10.97600005,-1.362199986,0.9079047553192889,-0.4191765204166641,-0.8649548579446936,0.5018496724297775
514,0.1380666941,-0.368177861,1.78882587,-0.5889189243,0.09555000067,-0.437675004,-0.694574976,1.352399966,-10.97600005,-1.362199986,0.9172113015054532,-0.39840108984624106,-0.877539285777543,0.4795047465010536
515,0.1438194811,-0.36894491310000005,1.820745349,-0.566691637,0.09764999866,-0.450449996,-0.6112750053,1.12700002,-10.96619959,-1.4504000190000002,0.9260425209878052,-0.37741919575261457,-0.8895465880184119,0.45684446778395144
516,0.1503392905,-0.3685613871,1.783859134,-0.39623185990000004,0.09764999866,-0.450449996,-0.6112750053,1.12700002,-10.96619959,-1.4504000190000002,0.9343938371606709,-0.3562417115894174,-0.900968867902419,0.43388373911755823
517,0.157626152,-0.3674108386,1.690449238,-0.23291778559999998,0.08924999832999998,-0.44835001469999997,-0.5580749893,0.9898000345,-10.4957998,-1.293599993,0.9422609221188204,-0.33487961217098644,-0.911798613412557,0.410637660935938
518,0.1672141105,-0.3666437864,1.746169806,-0.1278132796,0.08924999832999998,-0.44835001469999997,-0.5580749893,0.9898000345,-10.4957998,-1.293599993,0.9496396989003193,-0.3133439679848822,-0.9220287022200705,0.38712152133712807
519,0.17641855780000001,-0.36434268950000004,1.684365511,0.03026929498,0.05617500067000001,-0.45149998659999996,-0.5185249853,0.9211999685,-10.37820015,-1.323000053,0.9565263435993346,-0.2916459394548254,-0.9316524063685542,0.36335078602871135
520,0.1833218932,-0.36050748829999996,1.687176943,0.223851487,0.05617500067000001,-0.45149998659999996,-0.5185249853,0.9211999685,-10.37820015,-1.323000053,0.9629172873477992,-0.2697967711570244,-0.9406633966986827,0.33934108815658726
521,0.19521097839999998,-0.3566723168,1.777370691,0.3676978052,0.03045000017,-0.43434999469999996,-0.46304998399999997,0.7447999761,-10.55460021,-1.038799988,0.9688092181649064,-0.24780778599289965,-0.9490557470106687,0.31510821802362043
522,0.20019671320000001,-0.3562887907,1.67172718,0.2896357179,0.03045000017,-0.43434999469999996,-0.46304998399999997,0.7447999761,-10.55460021,-1.038799988,0.974199082673479,-0.22569037932121092,-0.9568239379617088,0.29066811270493353
523,0.2090176344,-0.3524535894,1.6065131430000001,0.4155448079,-0.002625000104,-0.398125,-0.320075016,0.2744000085,-11.05440021,-0.6369999766,0.9790840876823227,-0.20345601305263458,-0.9639628606958534,0.2660368455666748
524,0.21438689530000002,-0.3516865671,1.54148674,0.35760766270000005,-0.002625000104,-0.398125,-0.320075016,0.2744000085,-11.05440021,-0.6369999766,0.983461701633742,-0.1811162097098562,-0.9704678202039148,0.24123061569515236
525,0.2216737568,-0.34708434340000005,1.43190527,0.5128601789,0.021875,-0.33845000270000003,-0.05110000134,-0.117600001,-11.53460045,-0.4410000175,0.9873296559154696,-0.1586825464562514,-0.9763345384112041,0.2162657372432835
526,0.22589245440000003,-0.3397974968,1.338046074,0.7685015798,0.021875,-0.33845000270000003,-0.05110000134,-0.117600001,-11.53460045,-0.4410000175,0.9906859460363308,-0.13616664909624634,-0.9815591569910654,0.1911586287013721
527,0.22896060350000003,-0.3313600719,1.076272011,1.021674991,0.11042499900000001,-0.25620000600000004,0.01715000033,-0.08819999619999999,-9.623599935,-0.18619999399999998,0.9935288326650311,-0.1135801860504751,-0.9861382399023549,0.16592580209926777
528,0.2335628271,-0.3217720985,1.0405342579999999,1.2691643240000001,0.11042499900000001,-0.25620000600000004,0.01715000033,-0.08819999619999999,-9.623599935,-0.18619999399999998,0.9958568425315313,-0.09093486230884687,-0.9900687756492019,0.14058385214700264
529,0.2354804277,-0.3079654276,0.8728909492,1.590380669,0.19162499670000002,-0.2348500013,-0.0661499995,0.3233999982,-9.172799897,-0.303799995,0.9976687691905393,-0.06824241336467053,-0.993348179261558,0.11514944532105931
530,0.2370145023,-0.2995280325,0.7719326019,1.7115557190000001,0.19162499670000002,-0.2348500013,-0.0661499995,0.3233999982,-9.172799897,-0.303799995,0.9989636736467276,-0.04551459913296367,-0.9959742939952391,0.08963930890343318
531,0.2400826514,-0.2857213616,0.6907559633,1.885180593,0.2749250007,-0.2486750007,-0.050049998160000005,0.49979999070000003,-9.349199963,-0.5389999971,0.9997408848413492,-0.02276319785610629,-0.9979453927503363,0.06407021998071279
532,0.2404661626,-0.27651691440000004,0.5562781692000001,1.973961115,0.3335499907,-0.2465750027,0.05337499916999999,0.7350000292000001,-9.496199822000001,-0.8623999953,1.0,-2.4492935982947064e-16,-0.9992601792070677,0.03845899441039843
533,0.2404661626,-0.27651691440000004,0.5562781692000001,1.973961115,0.3335499907,-0.2465750027,0.05337499916999999,0.7350000292000001,-9.496199822000001,-0.8623999953,1.0,0.0,-0.9999177886783193,0.012822475761727124
534,0.2400826514,-0.2458354235,0.21291744710000002,2.078708172,0.3335499907,-0.2465750027,0.05337499916999999,0.7350000292000001,-9.496199822000001,-0.8623999953,0.9996515418688489,0.02639687176983634,-0.9999177886783193,-0.012822475761727322
535,0.23893208800000001,-0.2412331998,0.12315017730000001,2.102886438,0.362424984,-0.262675004,0.139824996,-0.07840000372,-9.329600215,-1.195600013,0.9986064103215336,0.05277534713046237,-0.9992601792070677,-0.03845899441039862
536,0.2385485768,-0.2293441296,0.07673700899000001,2.168265581,0.362424984,-0.262675004,0.139824996,-0.07840000372,-9.329600215,-1.195600013,0.996865333727226,0.07911704249342454,-0.9979453927503363,-0.06407021998071298
537,0.2381650507,-0.21860560769999998,0.05295173824,2.165392399,0.37520000929999997,-0.2444750047,0.1452500033,-1.23480002,-9.22179985,-1.705199951,0.9944295254705184,0.10540359990284776,-0.995974293995239,-0.08963930890343381
538,0.23586393890000001,-0.20825059710000002,-0.07217992097,2.131912947,0.37520000929999997,-0.2444750047,0.1452500033,-1.23480002,-9.22179985,-1.705199951,0.9913006831057968,0.13161669982939345,-0.993348179261558,-0.11514944532105906
539,0.2347133905,-0.1998131871,-0.1158223897,2.010430574,0.349474988,-0.19652499199999998,0.03954999983,-2.9497999910000003,-8.839600098,-1.675800037,0.9874809871741873,0.15773807393743752,-0.9900687756492018,-0.1405838521470033
540,0.2327957898,-0.1959780157,-0.1838191301,1.685327649,0.349474988,-0.19652499199999998,0.03954999983,-2.9497999910000003,-8.839600098,-1.675800037,0.9829730996839018,0.18374951781657034,-0.9861382399023548,-0.1659258020992684
541,0.2324122787,-0.1883076429,-0.1557650864,1.6465035680000002,0.2652999973,-0.16974999670000002,-0.1557499933,-3.959200138,-10.01559956,-0.9016000018000001,0.9777801622550408,0.20963290366854653,-0.9815591569910653,-0.19115862870137232
542,0.2316452414,-0.1814043075,-0.1628755629,1.578242779,0.2652999973,-0.16974999670000002,-0.1557499933,-3.959200138,-10.01559956,-0.9016000018000001,0.9719057939301476,0.23537019294084247,-0.9763345384112041,-0.2162657372432837
543,0.2308782041,-0.17680208379999998,-0.17509754,1.395518064,0.039025000330000004,-0.12810000300000002,-0.5367250013,-5.272399879,-13.5141995,1.4895999519999998,0.9653540886520386,0.2609434488980167,-0.9704678202039146,-0.24123061569515258
544,0.2312617153,-0.17373393480000002,-0.10866034029999999,1.195446491,0.039025000330000004,-0.12810000300000002,-0.5367250013,-5.272399879,-13.5141995,1.4895999519999998,0.9581296124106681,0.2863348491221126,-0.9639628606958532,-0.2660368455666754
545,0.230494678,-0.1741174459,-0.12010519210000001,0.868391037,-0.3141250134,-0.07490000367,-0.6422500134,-2.7832000910000003,-17.64979999,4.351200056000001,0.950237400061015,0.31152669793339155,-0.9568239379617087,-0.29066811270493376
546,0.230494678,-0.1741174459,-0.07607076317000001,0.6282669902,-0.3141250134,-0.07490000367,-0.6422500134,-2.7832000910000003,-17.64979999,4.351200056000001,0.9416829518142115,0.33650143872273924,-0.9490557470106685,-0.31510821802362105
547,0.227810055,-0.17641855780000001,-0.1987368464,0.3411070406,-0.5521249866,0.003150000125,-0.4565750027,-0.3626000047,-15.28799944,4.958799827,0.9324722294043558,0.3612416661871529,-0.9406633966986826,-0.3393410881565875
548,0.2251254171,-0.17871966960000002,-0.2912735045,0.1342814118,-0.5521249866,0.003150000125,-0.4565750027,-0.3626000047,-15.28799944,4.958799827,0.9226116519336829,0.3857301384597796,-0.9316524063685541,-0.36335078602871157
549,0.2178385705,-0.1852394938,-0.5978221893,-0.2369379848,-0.5041749907,0.10447499630000001,-0.3914750147,1.077999994,-11.6913996,2.7342001380000003,0.9121080913989877,0.40994978912605357,-0.9220287022200704,-0.3871215213371283
550,0.2074835598,-0.1886911541,-0.9811048508,-0.34643477200000006,-0.5041749907,0.10447499630000001,-0.3914750147,1.077999994,-11.6913996,2.7342001380000003,0.9009688679024191,0.4338837391175581,-0.911798613412557,-0.41063766093593823
551,0.1944439411,-0.1906087548,-1.406006694,-0.3527596295,-0.22242500070000001,0.212275002,-0.09485000133999999,0.19599999559999998,-11.49539979,0.4704000041,0.8892017445499811,0.45751530847532307,-0.900968867902419,-0.4338837391175584
552,0.17987023289999998,-0.18907468019999998,-1.7961755990000001,-0.1972007155,0.025200001,0.26232499600000003,0.06299999833,-0.3626000047,-9.388400042,-2.685199893,0.8768149220412986,0.48082802797435936,-0.8895465880184118,-0.45684446778395166
553,0.17987023289999998,-0.18907468019999998,-1.7961755990000001,-0.1972007155,0.025200001,0.26232499600000003,0.06299999833,-0.3626000047,-9.388400042,-2.685199893,0.8638170329544164,0.5038056506013294,-0.8775392857775427,-0.47950474650105424
554,0.1380666941,-0.1917593032,-2.566824198,-0.1965895742,0.025200001,0.26232499600000003,0.06299999833,-0.3626000047,-9.388400042,-2.685199893,0.8502171357296142,0.5264321628773557,-0.8649548579446937,-0.5018496724297773
555,0.1315468848,-0.19099226589999999,-2.64567852,-0.1327087134,0.03587499917,0.2399250007,0.1056999993,-0.7839999825,-11.04459975,-4.351200056000001,0.836024708356434,0.5486917960180737,-0.8518015808392042,-0.5238645501270655
556,0.11658965800000001,-0.1886911541,-2.740201235,0.03512810171,0.03587499917,0.2399250007,0.1056999993,-0.7839999825,-11.04459975,-4.351200056000001,0.8212496417683136,0.570569036923155,-0.8380881048918403,-0.5455349012105493
557,0.1012489125,-0.1883076429,-2.8212814330000002,0.05287728459,-0.018549998999999998,0.249550004,0.05774999917,-2.351999947,-11.40720034,-5.644799757,0.8059022329494349,0.5920486389876383,-0.8238234489557216,-0.56684647388045
558,0.08475761116000001,-0.1844724566,-2.953342438,0.24163363870000001,-0.018549998999999998,0.249550004,0.05774999917,-2.351999947,-11.40720034,-5.644799757,0.789993177758588,0.613115632727537,-0.8090169943749472,-0.5877852522924734
559,0.07056742162,-0.17871966960000002,-2.9288597110000003,0.475443095,-0.16485000130000002,0.135449996,0.055650001170000005,-3.184999883,-12.05400019,-4.311999977,0.7735335634750531,0.6337553362123162,-0.7936784788148323,-0.6083374657755132
560,0.05599371716,-0.1698987484,-2.929972172,0.8082711101000001,-0.16485000130000002,0.135449996,0.055650001170000005,-3.184999883,-12.05400019,-4.311999977,0.756534861071696,0.653953365296968,-0.7778179898577973,-0.6284895978881239
561,0.04103649035,-0.160310775,-2.9359447960000002,1.0985859629999999,-0.3141250134,-0.0684250015,-0.1076250017,-2.7342001380000003,-11.40720034,-2.381400007,0.7390089172206591,0.6736956436465572,-0.7614459583691346,-0.6482283953077882
562,0.02262759767,-0.1511063278,-3.124326468,1.298377037,-0.3141250134,-0.0684250015,-0.1076250017,-2.7342001380000003,-11.40720034,-2.381400007,0.7209679460372249,0.6929684125462467,-0.7445731516370067,-0.6675408765471482
563,0.005369260442,-0.1415183693,-3.19759202,1.46094501,-0.4187750053,-0.31815000530000004,-0.1737750053,-2.940000117,-11.74039955,-0.2548000053,0.7024245205675985,0.7117582404899709,-0.7272106662911969,-0.6864143404914509
564,-0.01725833677,-0.1315468848,-3.541810274,1.592487931,-0.4187750053,-0.31815000530000004,-0.1737750053,-2.940000117,-11.74039955,-0.2548000053,0.6833915640265488,0.73005203254107,-0.7093699210052576,-0.7048363747516118
565,-0.04026945308,-0.1234929934,-3.83295536,1.5849604609999999,-0.43697498799999995,-0.467424984,-0.06492500067000001,-2.655799979,-11.99519978,1.979600069,0.6638823407910085,0.7478370394583644,-0.6910626489868645,-0.7227948638273918
566,-0.05982890352999999,-0.11543910210000001,-3.8617079260000002,1.579774141,-0.43697498799999995,-0.467424984,-0.06492500067000001,-2.655799979,-11.99519978,1.979600069,0.6439104471559157,0.7651008665813082,-0.6723008902613168,-0.7402779970753156
567,-0.08399057388,-0.1096863225,-4.115534306,1.469117045,-0.419824996,-0.5358500147,0.09502499699999999,-2.96940003,-12.19119959,3.15559997,0.6234898018587336,0.7818314824680297,-0.6530969837532483,-0.7572742764761057
568,-0.1066181734,-0.1035500243,-4.21415329,1.39472115,-0.419824996,-0.5358500147,0.09502499699999999,-2.96940003,-12.19119959,3.15559997,0.6026346363792564,0.7980172272802395,-0.6334635591717701,-0.7737725241965066
569,-0.131930396,-0.09703020751000001,-4.423948288,1.2899947170000001,-0.35472500799999995,-0.5059249973,0.23275000329999998,-2.59699986,-11.70120006,3.7043999139999997,0.5813594850214601,0.8136468209091601,-0.6134135287043667,-0.7897618899405423
570,-0.1557085514,-0.09127742797,-4.51121664,1.245936155,-0.35472500799999995,-0.5059249973,0.23275000329999998,-2.59699986,-11.70120006,3.7043999139999997,0.5596791747843083,0.8287093708368186,-0.5929600785250256,-0.8052318580853564
571,-0.17948670690000001,-0.08667520434,-4.586340427,1.16424036,-0.2821000147,-0.40985000130000004,0.2721250033,-1.9893999430000002,-11.00540025,3.086999977,0.5376088150285775,0.8431943797272186,-0.5721166601221693,-0.8201722545969561
572,-0.20134726170000003,-0.08322353661000001,-4.522559166000001,1.0957148079999999,-0.1935500073,-0.3085249853,0.268974998,-1.666000018,-10.06459951,2.479399914,0.5151637869468961,0.8570917527421047,-0.550896981452102,-0.8345732537213031
573,-0.20134726170000003,-0.08322353661000001,-4.522559166000001,1.0957148079999999,-0.1935500073,-0.3085249853,0.268974998,-1.666000018,-10.06459951,2.479399914,0.49235973284434237,0.8703918045762195,-0.5293149979237873,-0.8484253844463525
574,-0.2531222701,-0.07095094025,-4.167580605,0.9559502006,-0.1935500073,-0.3085249853,0.268974998,-1.666000018,-10.06459951,2.479399914,0.4692125452370663,0.8830852662071506,-0.5073849032208819,-0.8617195367307953
575,-0.26424431800000003,-0.06980038434,-4.092054367,0.9129421115,-0.08575000167,-0.2049250007,0.25724999670000004,-1.460200039,-10.12339993,1.6267999380000002,0.4457383557765383,0.8951632913550623,-0.48512111996707236,-0.8744469674953956
576,-0.278434515,-0.06558167933999999,-3.9712228780000003,0.8958878517000001,-0.08575000167,-0.2049250007,0.25724999670000004,-1.460200039,-10.12339993,1.6267999380000002,0.42195352400713776,0.9066174626478125,-0.4625382902408353,-0.8865993063730001
577,-0.2933917344,-0.06213001534,-3.714470387,0.8433151841,0.02835000008,-0.1153250027,0.2530500007,-1.107399981,-9.564800107,1.264199933,0.39787462596492107,0.9174397974871562,-0.43965126594588183,-0.8981685612134191
578,-0.3102665544,-0.05906186625,-3.61097002,0.7843956351000001,0.02835000008,-0.1153250027,0.2530500007,-1.107399981,-9.564800107,1.264199933,0.3735184426255117,0.9276227536119478,-0.4164750990435987,-0.9091471233395751
579,-0.3267578483,-0.05791131034,-3.521640301,0.6314686536999999,0.11042499900000001,-0.0525,0.23065000530000002,-1.225,-9.917599654,1.1662000270000001,0.3489019482091668,0.9371592343544655,-0.3930250316539238,-0.9195277725514506
580,-0.3394139707,-0.05791131034,-3.259365559,0.4632396996,0.11042499900000001,-0.0525,0.23065000530000002,-1.225,-9.917599654,1.1662000270000001,0.32404229835116594,0.9460425935861947,-0.36931648603115624,-0.9293036818745521
581,-0.3547547162,-0.05829482897999999,-3.202542782,0.3214923441,0.15959999800000002,-0.01085000008,0.271074996,-1.470000058,-10.3586004,1.420999959,0.29895681814577035,0.954266640349623,-0.34536505442130727,-0.9384684220497606
582,-0.3658767641,-0.05791131034,-2.943184853,0.2599461973,0.15959999800000002,-0.01085000008,0.271074996,-1.470000058,-10.3586004,1.420999959,0.273662990072083,0.961825643172819,-0.3211864888076457,-0.9470159657616212
583,-0.37814936039999997,-0.0563772358,-2.805105686,0.27470368149999996,0.22785000800000002,0.040424998999999996,0.2988999987,-1.372000006,-10.329200199999999,2.126599929,0.24817844181022394,0.9687143340637885,-0.2967966905511898,-0.9549406916022907
584,-0.39233952759999996,-0.0563772358,-2.8116064069999998,0.208355695,0.22785000800000002,0.040424998999999996,0.2988999987,-1.372000006,-10.329200199999999,2.126599929,0.22252093395631445,0.9749279121818236,-0.2722116999329709,-0.9622373877685289
585,-0.4038451016,-0.05599371716,-2.6811101440000003,0.17459125820000002,0.2770249987,0.06387500167,0.2861250067,-0.8428000286,-11.04459975,2.195200068,0.1967083476448281,0.9804620471832867,-0.24744768560491395,-0.9689012554893154
586,-0.4149671197,-0.05445964262,-2.561168909,0.212218985,0.2770249987,0.06387500167,0.2861250067,-0.8428000286,-11.04459975,2.195200068,0.17075867208693768,0.9853128822394974,-0.2225209339563146,-0.9749279121818235
587,-0.42647269369999996,-0.05292556807,-2.502521515,0.25186097620000003,0.2950500107,0.06930000067000001,0.3436999893,-0.9211999685,-10.79959998,2.155999988,0.1446899920335405,0.9894770367246195,-0.19744783840286706,-0.9803133943336872
588,-0.43644416329999997,-0.0521585308,-2.371790171,0.2306877971,0.2950500107,0.06930000067000001,0.3436999893,-0.9211999685,-10.79959998,2.155999988,0.11852047517170274,0.9929516085716734,-0.17224488860531864,-0.9850541601096569
589,-0.4429639876,-0.04678926989,-2.0902075769999997,0.4516828954,0.2919000053,0.083125,0.32987500670000003,-0.6860000029000001,-8.604400206000001,1.6267999380000002,0.092268359463302,0.9957341762950345,-0.14692865962481733,-0.9891470916809363
590,-0.452935487,-0.04218704626,-2.054469824,0.5738470554,0.2919000053,0.083125,0.32987500670000003,-0.6860000029000001,-8.604400206000001,1.6267999380000002,0.06595194043469557,0.9978228006780053,-0.12151580102209945,-0.992589497275665
591,-0.46290695670000004,-0.03681778535,-2.041272163,0.7091031075,0.2770249987,0.1172499967,0.14629999400000002,-0.5193999939,-9.182599771,0.8722000152,0.03958955842626959,0.9992160261242876,-0.09602302590768157,-0.9953791129491982
592,-0.4736454785,-0.032599080350000004,-2.078072309,0.7483412026999999,0.21822500469999997,0.10009999630000001,0.20930000070000002,-1.1172000009999998,-9.995999813,0.4018000111,0.013199585810758961,0.9999128816724107,-0.0704670999502534,-0.9975141040730207
593,-0.4736454785,-0.032599080350000004,-2.078072309,0.7483412026999999,0.21822500469999997,0.10009999630000001,0.20930000070000002,-1.1172000009999998,-9.995999813,0.4018000111,-0.01319958581075884,0.9999128816724107,-0.044864830350515104,-0.9989930665413146
594,-0.49857419729999997,-0.01994296722,-1.922795773,0.8142068981999999,0.21822500469999997,0.10009999630000001,0.20930000070000002,-1.1172000009999998,-9.995999813,0.4018000111,-0.039589558426269246,0.9992160261242876,-0.019233054787687116,-0.99981502769439
595,-0.5016423464,-0.01802537404,-1.8781940940000001,0.8287865520000001,0.16922500129999998,0.08837500334,0.285075016,-0.9898000345,-9.897999907,0.2744000085,-0.06595194043469502,0.9978228006780053,0.006411369654011412,-0.999979446958366
596,-0.5108467937,-0.01380666997,-1.873305082,0.8339008093000001,0.16922500129999998,0.08837500334,0.285075016,-0.9898000345,-9.897999907,0.2744000085,-0.09226835946330189,0.9957341762950346,0.032051577571655755,-0.9994862162006879
597,-0.517750144,-0.01035500225,-1.845344186,0.8001309633,0.1317750037,0.08942500233999999,0.31919999600000004,-1.068199974,-10.23120029,-0.1372000042,-0.11852047517170262,0.9929516085716734,0.05767070633537531,-0.9983356598012408
598,-0.5261875390999999,-0.008437409066,-1.7158175709999999,0.7043162584,0.1317750037,0.08942500233999999,0.31919999600000004,-1.068199974,-10.23120029,-0.1372000042,-0.14468999203354016,0.9894770367246195,0.08325190717828958,-0.9965285344390182
599,-0.5334743857,-0.0061362977139999995,-1.6491290330000001,0.6425185204,0.08592499732999999,0.083125,0.38202499869999995,-1.136799967,-10.427200099999999,-0.01960000093,-0.17075867208693757,0.9853128822394974,0.10877835627733129,-0.9940660285944802
600,-0.5384601354999999,-0.004218704533,-1.470617175,0.5805847645000001,0.08592499732999999,0.083125,0.38202499869999995,-1.136799967,-10.427200099999999,-0.01960000093,-0.196708347644828,0.9804620471832867,0.13423326581765527,-0.9909497617679348
601,-0.5461304784000001,-0.001150555792,-1.4773395059999999,0.5979516506,0.07525000334,0.082075001,0.4450250053,-1.038799988,-10.22139983,0.24500000370000002,-0.22252093395631434,0.9749279121818236,0.15959989503337926,-0.9871817834144502
602,-0.551499784,-0.0,-1.3599138259999999,0.5037090778,0.07525000334,0.082075001,0.4450250053,-1.038799988,-10.22139983,0.24500000370000002,-0.2481784418102236,0.9687143340637886,0.184861561217369,-0.9827645715960038
603,-0.5584030747,0.001150555792,-1.3473900559999998,0.4344517589,0.071049999,0.06282499849999999,0.5059249973,-0.5096000104999999,-10.16259942,0.2254000004,-0.2736629900720829,0.961825643172819,0.21000165069284993,-0.9777010313517513
604,-0.5630053282,-0.0,-1.299762726,0.2669664621,0.071049999,0.06282499849999999,0.5059249973,-0.5096000104999999,-10.16259942,0.2254000004,-0.29895681814577024,0.954266640349623,0.23500362973961586,-0.9719944927874877
605,-0.5702921747999999,0.0003835186071,-1.268265486,0.22687843440000002,0.065625,0.04567499816000001,0.6327999972999999,-0.7545999959,-10.54479976,0.48019998740000003,-0.32404229835116566,0.9460425935861948,0.2598510554676531,-0.9656487088855588
606,-0.576428473,-0.0003835186071,-1.25473547,0.12788654859999998,0.065625,0.04567499816000001,0.6327999972999999,-0.7545999959,-10.54479976,0.48019998740000003,-0.3489019482091665,0.9371592343544656,0.2845275866310329,-0.9586678530366605
607,-0.5798801184000001,-0.0007670372142,-1.1087132690000001,0.06753881276000001,0.09764999866,0.04690000117,0.698949976,-0.7350000292000001,-9.613800061000001,0.4018000111,-0.3735184426255116,0.9276227536119478,0.30901699437494723,-0.9510565162951536
608,-0.5856329203,0.0007670372142,-1.1743389370000001,0.1218355522,0.09764999866,0.04690000117,0.698949976,-0.7350000292000001,-9.613800061000001,0.4018000111,-0.39787462596492074,0.9174397974871563,0.33330317290884187,-0.9428197043596929
609,-0.59061867,0.0007670372142,-1.061150312,0.08358232677,0.09134999632999999,0.02222499967,0.7012249947,-0.7644000157999999,-9.65300014,0.17639999239999998,-0.42195352400713765,0.9066174626478126,0.3573701500986012,-0.9339628342811631
610,-0.5956044197,0.001150555792,-1.042116761,0.08073407412,0.09134999632999999,0.02222499967,0.7012249947,-0.7644000157999999,-9.65300014,0.17639999239999998,-0.4457383557765378,0.8951632913550626,0.3812020979708422,-0.9244917309000814
611,-0.6005901097999999,0.0019175930650000002,-1.0307629109999998,0.09398186207,0.08277500033,0.005250000209,0.7330749893,-0.8722000152,-9.074799991,0.2744000085,-0.46921254523706624,0.8830852662071507,0.4047833431223938,-0.9144126230158125
612,-0.6028912663,0.004218704533,-0.8915406466,0.18296529350000001,0.07857499599,-0.009800000042,0.6957999706,-0.7644000157999999,-7.92820015,0.4410000175,-0.49235973284434215,0.8703918045762196,0.42809837702812564,-0.9037321392901133
613,-0.6028912663,0.004218704533,-0.8915406466,0.18296529350000001,0.07857499599,-0.009800000042,0.6957999706,-0.7644000157999999,-7.92820015,0.4410000175,-0.5151637869468957,0.8570917527421049,0.45113186624033497,-0.8924573038877056
614,-0.6078770161,0.01188907679,-0.6294629574,0.3933297694,0.07857499599,-0.009800000042,0.6957999706,-0.7644000157999999,-7.92820015,0.4410000175,-0.5376088150285775,0.8431943797272186,0.4738686624729985,-0.8805955318567381
615,-0.6086440086,0.015340744519999998,-0.5682216286999999,0.5199218988000001,0.059325001839999995,-0.03430000067,0.574175024,-0.6664000362,-7.761599958,-0.303799995,-0.559679174784308,0.8287093708368188,0.49629381256425004,-0.8681546242521784
616,-0.6082605124,0.0164912995,-0.3986211419,0.44365116950000005,0.059325001839999995,-0.03430000067,0.574175024,-0.6664000362,-7.761599958,-0.303799995,-0.5813594850214597,0.8136468209091603,0.5183925683105253,-0.8551427630053461
617,-0.6071099639,0.01994296722,-0.2349735796,0.4969139099,0.002799999937,-0.05670000017000001,0.5580749893,-0.4704000041,-7.986999977000001,-0.2254000004,-0.6026346363792563,0.7980172272802396,0.5401503961659205,-0.8415685055429528
618,-0.6063429117,0.02301111631,-0.13816598060000002,0.5243076086,0.002799999937,-0.05670000017000001,0.5580749893,-0.4704000041,-7.986999977000001,-0.2254000004,-0.6234898018587334,0.7818314824680299,0.5615529868003746,-0.8274407791591966
619,-0.604808867,0.02339463495,-0.028273420410000003,0.4100126624,-0.03132499933,-0.06422500133999999,0.5496749972999999,-0.3332000181,-7.379400206000001,0.303799995,-0.6439104471559156,0.7651008665813083,0.5825862645103963,-0.8127688751446026
620,-0.6028912663,0.02377815358,0.09220349788999999,0.3251516819,-0.03132499933,-0.06422500133999999,0.5496749972999999,-0.3332000181,-7.379400206000001,0.303799995,-0.663882340791008,0.7478370394583648,0.6032363964761367,-0.7975624426754843
621,-0.6040418148,0.02454519086,0.002043299377,0.2860603929,-0.059150002,-0.03954999983,0.49087498659999995,0.2254000004,-8.104600215,-0.05880000051,-0.6833915640265483,0.7300520325410704,0.6234898018587334,-0.7818314824680299
622,-0.6009736657,0.02492870949,0.15680146220000002,0.2386457026,-0.059150002,-0.03954999983,0.49087498659999995,0.2254000004,-8.104600215,-0.05880000051,-0.7024245205675985,0.7117582404899709,0.6433331607319348,-0.7655863402011942
623,-0.5990560651,0.02454519086,0.2065432221,0.1567928344,-0.08907500267000001,-0.07052500367,0.441875,0.6075999901,-7.986999977000001,0.38220000789999997,-0.7209679460372247,0.692968412546247,0.6627534228421231,-0.7488376997127281
624,-0.5967549682,0.02684630267,0.2620168626,0.22905100879999998,-0.08907500267000001,-0.07052500367,0.441875,0.6075999901,-7.986999977000001,0.38220000789999997,-0.739008917220659,0.6736956436465573,0.6817378161909999,-0.7315965759728009
625,-0.5956044197,0.02838037722,0.2536324561,0.2508857846,-0.08049999833,-0.07157500267000001,0.35,1.273999953,-8.03599993,0.8133999690000001,-0.7565348610716958,0.6539533652969682,0.7002738554352549,-0.7138743078398632
626,-0.5936868191,0.03106500767,0.3035715222,0.323494643,-0.08049999833,-0.07157500267000001,0.35,1.273999953,-8.03599993,0.8133999690000001,-0.7735335634750531,0.6337553362123163,0.7183493500977277,-0.6956825506034863
627,-0.5936868191,0.032599080350000004,0.2354205698,0.3142931163,-0.05704999982999999,-0.06299999833,0.280700016,1.430799979,-8.42800014,0.6664000362,-0.7899931777585879,0.6131156327275371,0.7359524125846353,-0.6770332683191091
628,-0.5929197668999999,0.03374963626,0.2111205608,0.2885444462,-0.05704999982999999,-0.06299999833,0.280700016,1.430799979,-8.42800014,0.6664000362,-0.8059022329494345,0.5920486389876386,0.7530714660036114,-0.6579387259397121
629,-0.5890845656,0.032599080350000004,0.3622570932,0.1574556231,-0.04637500166999999,-0.058799998160000005,0.264775002,1.25440006,-8.918000257000001,0.7153999895,-0.8212496417683136,0.570569036923155,0.7696952517774066,-0.638411481249605
630,-0.585249424,0.031832043080000004,0.4743626118,0.07477196306,-0.04637500166999999,-0.058799998160000005,0.264775002,1.25440006,-8.918000257000001,0.7153999895,-0.836024708356434,0.5486917960180737,0.7858128370482426,-0.6184643766056314
631,-0.5760449767,0.032599080350000004,0.845005095,0.08480004966,-0.0453249985,-0.04059999883,0.1942500067,0.8428000286,-7.624399972000001,0.8525999755,-0.850217135729614,0.5264321628773561,0.8014136218679571,-0.5981105304912155
632,-0.5706756711,0.032599080350000004,0.9149938226000001,0.06638202071,-0.02607500017,0.007349999771,-0.02869999975,1.332800072,-7.722399879,0.9408000082,-0.8638170329544161,0.5038056506013298,0.8164873461691986,-0.5773633288888196
633,-0.5526503325,0.032599080350000004,1.2546583409999998,0.06638202071,-0.02607500017,0.007349999771,-0.02869999975,1.332800072,-7.722399879,0.9408000082,-0.8768149220412986,0.48082802797435953,0.8310240965131042,-0.5562364164764646
634,-0.5472810268,0.03451667354,1.424094439,0.1150542125,-0.02607500017,0.007349999771,-0.02869999975,1.332800072,-7.722399879,0.9408000082,-0.8892017445499811,0.45751530847532323,0.8450143126090014,-0.5347436876541292
635,-0.5453634857999999,0.03490019217,1.3646748069999999,0.1159820333,-0.018549998999999998,0.06825000167,-0.07787499666,1.3818000259999998,-8.800400019,1.6365999580000001,-0.900968867902419,0.43388373911755823,0.8584487936018664,-0.5128992774059056
636,-0.5353919864,0.03643426672,1.518302679,0.1625391096,-0.018549998999999998,0.06825000167,-0.07787499666,1.3818000259999998,-8.800400019,1.6365999580000001,-0.9121080913989875,0.409949789126054,0.8713187041233899,-0.4907175520039371
637,-0.5269545913,0.03988593444,1.545127869,0.3033939898,0.002799999937,0.1120000017,-0.09380000234,0.6958000228,-8.03599993,1.8914000359999998,-0.9226116519336829,0.3857301384597796,0.8836155801026754,-0.46821309956024554
638,-0.5165995359000001,0.04448815808,1.6787793640000002,0.460857302,0.002799999937,0.1120000017,-0.09380000234,0.6958000228,-8.03599993,1.8914000359999998,-0.9324722294043557,0.3612416661871533,0.8953313343327534,-0.44540072043265866
639,-0.5070115924,0.04832334444,1.743698835,0.5377887486999999,0.02625,0.1471749973,-0.22819999929999998,0.6272000298,-7.389200079,1.705199951,-0.9416829518142114,0.3365014387227396,0.9064582617892382,-0.4222954174911599
640,-0.49857419729999997,0.05445964262,1.7452116009999998,0.7167997359999999,0.02625,0.1471749973,-0.22819999929999998,0.6272000298,-7.389200079,1.705199951,-0.9502374000610149,0.31152669793339177,0.9169890446976452,-0.3989123862510415
641,-0.4889862239,0.05906186625,1.708387017,0.7310853601,-0.01644999996,0.127924999,-0.331799984,-0.02940000026,-8.349599981,1.323000053,-0.958129612410668,0.2863348491221129,0.926916757346022,-0.37526700487937376
642,-0.4847675264,0.0605959408,1.558504105,0.6544027925,-0.01644999996,0.127924999,-0.331799984,-0.02940000026,-8.349599981,1.323000053,-0.9653540886520386,0.2609434488980169,0.9362348706397374,-0.3513748240813421
643,-0.4770971537,0.06328056753,1.5558055640000001,0.6111425161,-0.059150002,0.127924999,-0.3211250067,-1.430799979,-9.711799967000001,1.058400027,-0.9719057939301476,0.23537019294084263,0.9449372563954292,-0.32725155687311674
644,-0.4709608555,0.06673223525000001,1.47998786,0.6262192726,-0.059150002,0.127924999,-0.3211250067,-1.430799979,-9.711799967000001,1.058400027,-0.9777801622550407,0.20963290366854706,0.9530181913712873,-0.30291306824797193
645,-0.4632904828,0.06749927253,1.491806746,0.49550381299999996,-0.05267499983,0.126875,-0.39042499070000003,-4.4295999230000005,-11.53460045,0.2744000085,-0.9829730996839018,0.18374951781657037,0.9604723610310194,-0.27837536474246266
646,-0.4560036361,0.06826630980000001,1.4763008359999998,0.40074533219999997,-0.05267499983,0.126875,-0.39042499070000003,-4.4295999230000005,-11.53460045,0.2744000085,-0.9874809871741872,0.15773807393743794,0.9672948630390295,-0.25365458390950746
647,-0.4498673379,0.07018390297999999,1.4171317819999998,0.3864211142,0.029399999080000003,0.1417500067,-0.4224499893,-3.8611999389999996,-14.06299944,-2.087399995,-0.9913006831057968,0.13161669982939384,0.9734812104845048,-0.22876698370530518
648,-0.44449806210000004,0.07056742162,1.349850178,0.3022502363,0.029399999080000003,0.1417500067,-0.4224499893,-3.8611999389999996,-14.06299944,-2.087399995,-0.9944295254705184,0.10540359990284764,0.979027334832293,-0.20372893179707513
649,-0.435677141,0.07440260798,1.4608922,0.42343127729999996,0.1958249927,0.09904999732999999,-0.319024992,-1.940399989,-13.92580004,-3.577000093,-0.996865333727226,0.07911704249342481,0.9839295885986298,-0.178556894798636
650,-0.42647269369999996,0.07593668252,1.5558754209999999,0.4000799954,0.1958249927,0.09904999732999999,-0.319024992,-1.940399989,-13.92580004,-3.577000093,-0.9986064103215336,0.0527753471304626,0.9881847477499557,-0.15326742744091587
651,-0.4176517725,0.07747075707000001,1.60292697,0.36815321450000005,0.3260249853,0.05862499833,-0.3958500147,-0.9603999749,-11.5836004,-1.813000023,-0.9996515418688489,0.026396871769836513,0.9917900138232462,-0.12787716168450575
652,-0.4111319482,0.07823779434,1.52463448,0.3118306696,0.3825500107,0.084174999,-0.48125,-0.7447999761,-10.67219987,-0.7545999959,-1.0,1.2246467991473532e-16,0.9947430157664574,-0.10240279578143091
653,-0.4007769525,0.07823779434,1.227842927,0.3118306696,0.3825500107,0.084174999,-0.48125,-0.7447999761,-10.67219987,-0.7545999959,-0.9996515418688489,-0.02639687176983627,0.9970418114978818,-0.07686108329331669
654,-0.4000099003,0.07862131298,1.129624844,0.149481535,0.3825500107,0.084174999,-0.48125,-0.7447999761,-10.67219987,-0.7545999959,-0.9986064103215336,-0.052775347130461905,0.9986848891833844,-0.051268822073179156
655,-0.39924287799999997,0.07823779434,1.04267633,0.1096574292,0.29610000129999997,0.11409999970000001,-0.2815750027,-1.93059997,-10.99559979,-0.07840000372,-0.9968653337272261,-0.07911704249342412,0.9996711682306798,-0.025642843218095065
656,-0.39694175119999997,0.07900483161,0.8805660009,0.12218985710000001,0.29610000129999997,0.11409999970000001,-0.2815750027,-1.93059997,-10.99559979,-0.07840000372,-0.9944295254705184,-0.1054035999028474,1.0,-2.4492935982947064e-16
657,-0.3934900761,0.07862131298,0.8245865106999999,0.07582315058,0.153125,0.130024997,-0.1609999967,-2.9008000369999998,-11.32880018,0.49979999070000003,-0.9913006831057969,-0.13161669982939275,1.0,0.0
658,-0.39080545310000003,0.07862131298,0.7543255091,0.055081646889999995,0.153125,0.130024997,-0.1609999967,-2.9008000369999998,-11.32880018,0.49979999070000003,-0.9874809871741873,-0.15773807393743772,0.9997167946931291,0.023797697546107513
659,-0.38697028159999997,0.07862131298,0.7364847064,0.036826774480000005,0.007000000104000001,0.11935000300000001,-0.05442499816000001,-3.302600121,-13.11240058,0.5389999971,-0.9829730996839018,-0.18374951781657015,0.998867339183008,0.04758191582374229
660,-0.3839021325,0.07900483161,0.7512410283,0.047230016439999994,0.007000000104000001,0.11935000300000001,-0.05442499816000001,-3.302600121,-13.11240058,0.5389999971,-0.9777801622550408,-0.2096329036685464,0.9974521146102535,0.07133918319923234
661,-0.38006693119999996,0.0778542757,0.721447587,-0.02731638215,-0.09012500167000001,0.1097249997,-0.053199999330000004,-3.7338001189999996,-13.29859993,0.9995999812999999,-0.9719057939301476,-0.2353701929408424,0.9954719225730846,0.09505604330418266
662,-0.3746976852,0.07823779434,0.849591434,-0.002597639337,-0.09012500167000001,0.1097249997,-0.053199999330000004,-3.7338001189999996,-13.29859993,0.9995999812999999,-0.9653540886520388,-0.26094344889801624,0.9929278846732883,0.1187190626573052
663,-0.3674108386,0.07708723843,1.020519495,-0.0708212927,-0.111474998,0.131074996,-0.0661499995,-3.8415998999999994,-12.26959975,0.7545999959,-0.9581296124106682,-0.28633484912211227,0.9898214418809327,0.14231483827328514
664,-0.3616580367,0.07593668252,1.0570639370000001,-0.1174966097,-0.111474998,0.131074996,-0.0661499995,-3.8415998999999994,-12.26959975,0.7545999959,-0.9502374000610151,-0.31152669793339116,0.9861543537181866,0.16583000525437414
665,-0.3536041677,0.07401908934,1.203011632,-0.1986730695,-0.10832500099999999,0.164150002,-0.1172499967,-3.871000105,-11.76000047,0.6369999766,-0.9416829518142115,-0.33650143872273935,0.9819286972627067,0.1892512443604102
666,-0.3455502689,0.07286853343,1.3163541559999998,-0.2091585696,-0.10832500099999999,0.164150002,-0.1172499967,-3.871000105,-11.76000047,0.6369999766,-0.9324722294043557,-0.3612416661871531,0.9771468659711595,0.21256528955297666
667,-0.33903044460000004,0.06903334707,1.29430449,-0.361856699,-0.09537499666000002,0.207900002,-0.125825001,-3.890600145,-11.4856005,-0.02940000026,-0.922611651933683,-0.38573013845977944,0.9718115683235417,0.23575893550942723
668,-0.3286754489,0.06481464207,1.48663044,-0.49214759469999997,-0.09537499666000002,0.207900002,-0.125825001,-3.890600145,-11.4856005,-0.02940000026,-0.9121080913989879,-0.4099497891260534,0.9659258262890683,0.2588190451025208
669,-0.3190874755,0.06213001534,1.6005846259999998,-0.5037635564999999,-0.06877500117,0.2591750073,-0.1161999977,-3.626000047,-10.82900019,0.07840000372,-0.9009688679024191,-0.433883739117558,0.9594929736144974,0.28173255684142967
670,-0.30719840530000003,0.06251353025,1.7292096609999998,-0.327862978,-0.06877500117,0.2591750073,-0.1161999977,-3.626000047,-10.82900019,0.07840000372,-0.8892017445499814,-0.4575153084753226,0.9525166539358605,0.304486492269907
671,-0.300678581,0.06097945943,1.625528336,-0.325964421,-0.039899999500000005,0.2953999853,-0.18339999199999998,-2.9008000369999998,-10.86819968,-0.7055999695999999,-0.8768149220412988,-0.480828027974359,0.9450008187146685,0.3270679633174216
672,-0.2914741337,0.05867834762,1.6785140040000002,-0.36405178899999996,0.01014999971,0.266699996,-0.2154250073,-2.626400065,-9.00620029,-1.675800037,-0.8638170329544165,-0.5038056506013292,0.9369497249997617,0.34946417959909837
673,-0.2914741337,0.05867834762,1.6785140040000002,-0.36405178899999996,0.01014999971,0.266699996,-0.2154250073,-2.626400065,-9.00620029,-1.675800037,-0.8502171357296141,-0.5264321628773558,0.9283679330160726,0.3716624556603275
674,-0.2673124671,0.0437211208,1.7957762480000001,-0.8589047790000001,0.01014999971,0.266699996,-0.2154250073,-2.626400065,-9.00620029,-1.675800037,-0.8360247083564342,-0.5486917960180736,0.9192603035816655,0.39365021816194135
675,-0.2661619186,0.04103649035,1.651045203,-0.9177221059999999,-0.07297500134,0.24202499870000002,-0.289100008,-1.861999977,-11.17199986,-1.136799967,-0.8212496417683137,-0.5705690369231549,0.9096319953545184,0.4154150130018864
676,-0.2546563447,0.030681489039999996,1.807300925,-1.219577312,-0.07297500134,0.24202499870000002,-0.289100008,-1.861999977,-11.17199986,-1.136799967,-0.805902232949435,-0.592048638987638,0.8994884619106032,0.4369445123693596
677,-0.2469859868,0.01917592995,1.834718227,-1.505719185,-0.1380749977,0.2526999927,-0.06930000067000001,-2.636199939,-10.75060003,-1.646399978,-0.7899931777585882,-0.6131156327275366,0.8888354486549235,0.4582265217274104
678,-0.23509690170000003,0.004602223169,1.885068536,-1.8810678719999998,-0.1380749977,0.2526999927,-0.06930000067000001,-2.636199939,-10.75060003,-1.646399978,-0.7735335634750535,-0.6337553362123158,0.8776789895672557,0.47924898672005684
679,-0.2262759805,-0.009971483611,1.85770154,-2.152257204,-0.1744750047,0.2698500013,0.04375,-2.587199986,-10.15280013,-0.7938000023,-0.7565348610716962,-0.6539533652969677,0.8660254037844386,0.5
680,-0.21745504440000002,-0.02339463495,1.834177494,-2.2811656000000005,-0.1744750047,0.2698500013,0.04375,-2.587199986,-10.15280013,-0.7938000023,-0.7390089172206591,-0.6736956436465572,0.8538812920211482,0.5204678079730722
681,-0.2101681978,-0.039502415810000004,1.7354581359999999,-2.55333519,-0.1893499947,0.3211250067,0.046025002,-2.2049999419999997,-9.623599935,-0.009800000465,-0.7209679460372247,-0.6929684125462467,0.8412535328311812,0.5406408174555976
682,-0.202497825,-0.05867834762,1.6854659319999998,-2.892163992,-0.1893499947,0.3211250067,0.046025002,-2.2049999419999997,-9.623599935,-0.009800000465,-0.7024245205675987,-0.7117582404899707,0.8281492787113709,0.560507602240894
683,-0.1963615268,-0.08053890616,1.5628134009999999,-3.286145687,-0.22557500600000002,0.3008250093,0.144199996,-1.391600046,-11.03480046,-2.0384000419999997,-0.6833915640265489,-0.7300520325410699,0.8145759520503357,0.5800569095711982
684,-0.1925263405,-0.1023994684,1.429785013,-3.578571081,-0.22557500600000002,0.3008250093,0.144199996,-1.391600046,-11.03480046,-2.0384000419999997,-0.6638823407910087,-0.7478370394583642,0.8005412409243604,0.599277666511347
685,-0.1852394938,-0.12272595609999999,1.3545717,-3.702548742,-0.2619750047,0.28262499329999996,0.660625,-2.322600034,-11.74039955,-0.3626000047,-0.6439104471559158,-0.765100866581308,0.7860530947427875,0.6181589862206052
686,-0.1810207814,-0.1426689178,1.209708333,-3.775150061,-0.2619750047,0.28262499329999996,0.660625,-2.322600034,-11.74039955,-0.3626000047,-0.6234898018587337,-0.7818314824680297,0.7711197197453876,0.6366901741190882
687,-0.1779526323,-0.1618448496,1.1199548240000001,-3.79330039,-0.17972500800000002,0.3818499947,0.7405999947,-1.92079995,-9.339400089,-0.117600001,-0.6026346363792572,-0.7980172272802388,0.7557495743542583,0.6548607339452851
688,-0.1760350466,-0.17871966960000002,0.9280102253,-3.6844642160000003,-0.17972500800000002,0.3818499947,0.7405999947,-1.92079995,-9.339400089,-0.117600001,-0.58135948502146,-0.8136468209091601,0.7399513643828839,0.6726603737012525
689,-0.17565152050000002,-0.1932933778,0.6592389941,-3.4809744360000003,-0.11042499900000001,0.36592499729999994,0.6648250294,-1.587600005,-9.035599911,-0.1274000026,-0.5596791747843083,-0.8287093708368186,0.7237340381050702,0.6900790114821119
690,-0.174500972,-0.20633301140000002,0.5466803311999999,-3.2540469169999997,-0.11042499900000001,0.36592499729999994,0.6648250294,-1.587600005,-9.035599911,-0.1274000026,-0.5376088150285774,-0.8431943797272186,0.7071067811865476,0.7071067811865475
691,-0.17565152050000002,-0.2201396823,0.3513712585,-2.9535284039999996,-0.08470000267000001,0.3136000013,0.6371749972999999,-1.8326000630000001,-8.290800154,-0.6664000362,-0.515163786946896,-0.8570917527421047,0.690079011482112,0.7237340381050701
692,-0.1752680093,-0.2312617153,0.280413568,-2.762183189,-0.09974999666,0.22819999929999998,0.48457500929999997,-1.420999959,-7.24220022,-1.323000053,-0.4923597328443428,-0.8703918045762192,0.6726603737012526,0.7399513643828837
693,-0.1752680093,-0.2312617153,0.280413568,-2.762183189,-0.09974999666,0.22819999929999998,0.48457500929999997,-1.420999959,-7.24220022,-1.323000053,-0.4692125452370668,-0.8830852662071503,0.6548607339452852,0.7557495743542582
694,-0.1729668975,-0.2527387738,0.2510459125,-2.25820756,-0.09974999666,0.22819999929999998,0.48457500929999997,-1.420999959,-7.24220022,-1.323000053,-0.4457383557765388,-0.895163291355062,0.6366901741190882,0.7711197197453876
695,-0.1729668975,-0.258875072,0.207920745,-2.225312471,-0.1231999993,0.1802500033,0.37134998799999996,-1.499399972,-7.751800084,-1.9893999430000002,-0.4219535240071375,-0.9066174626478127,0.6181589862206052,0.7860530947427875
696,-0.1702822596,-0.2676959932,0.2894230485,-2.111710548,-0.1231999993,0.1802500033,0.37134998799999996,-1.499399972,-7.751800084,-1.9893999430000002,-0.39787462596492135,-0.9174397974871561,0.599277666511347,0.8005412409243604
697,-0.1664470732,-0.275749892,0.41077902909999997,-1.981255531,-0.1338750017,0.170625,0.328825016,-1.9893999430000002,-7.124599981,-2.244200021,-0.37351844262551204,-0.9276227536119477,0.5800569095711983,0.8145759520503357
698,-0.1610778123,-0.2853378356,0.5840478539,-1.956959009,-0.1338750017,0.170625,0.328825016,-1.9893999430000002,-7.124599981,-2.244200021,-0.3489019482091671,-0.9371592343544654,0.5605076022408941,0.8281492787113708
699,-0.157626152,-0.2933917344,0.6107064486,-1.858899355,-0.12845000269999998,0.1930249953,0.177275002,-1.813000023,-7.6930002570000005,-1.25440006,-0.32404229835116627,-0.9460425935861946,0.5406408174555977,0.8412535328311811
700,-0.1514898539,-0.3041302562,0.769379437,-1.933785081,-0.12845000269999998,0.1930249953,0.177275002,-1.813000023,-7.6930002570000005,-1.25440006,-0.2989568181457707,-0.9542666403496229,0.5204678079730723,0.853881292021148
701,-0.1465041041,-0.312184155,0.8316446543000001,-1.856371403,-0.1167250013,0.2313500047,0.136674999,-2.087399995,-8.026200056,-0.7742000356000001,-0.2736629900720831,-0.961825643172819,0.49999999999999994,0.8660254037844387
702,-0.14036780599999998,-0.3210050762,0.9457370043000001,-1.8347700830000002,-0.1167250013,0.2313500047,0.136674999,-2.087399995,-8.026200056,-0.7742000356000001,-0.2481784418102249,-0.9687143340637883,0.47924898672005684,0.8776789895672557
703,-0.13653261960000002,-0.3275249004,0.9110728502,-1.6947597269999999,-0.08365000367,0.2325749993,0.08977500199999999,-1.6953999309999999,-8.359399855,-0.9114000216,-0.2225209339563146,-0.9749279121818235,0.45822652172741046,0.8888354486549235
704,-0.132313922,-0.33711284399999997,0.9078123569,-1.7552275659999999,-0.08365000367,0.2325749993,0.08977500199999999,-1.6953999309999999,-8.359399855,-0.9114000216,-0.19670834764482825,-0.9804620471832867,0.4369445123693595,0.8994884619106032
705,-0.13039632140000001,-0.3424821198,0.7649678588,-1.591804147,-0.04637500166999999,0.21752500530000002,0.06632499933,-1.5091999919999999,-8.643600285,-0.6467999965,-0.1707586720869376,-0.9853128822394974,0.41541501300188644,0.9096319953545183
706,-0.1277116984,-0.3478513658,0.6807670593,-1.454720616,-0.04637500166999999,0.21752500530000002,0.06632499933,-1.5091999919999999,-8.643600285,-0.6467999965,-0.1446899920335404,-0.9894770367246195,0.39365021816194146,0.9192603035816655
707,-0.1250270605,-0.3520700932,0.6271539927,-1.291490793,0.004900000021,0.1951249933,0.05985000133999999,-1.0878000140000001,-8.731799733999999,-1.038799988,-0.11852047517170351,-0.9929516085716733,0.3716624556603275,0.9283679330160726
708,-0.1204248443,-0.3566723168,0.6996447444,-1.1866812709999999,0.004900000021,0.1951249933,0.05985000133999999,-1.0878000140000001,-8.731799733999999,-1.038799988,-0.0922683594633028,-0.9957341762950345,0.34946417959909837,0.9369497249997617
709,-0.1188907698,-0.35974046590000003,0.5986240506,-1.0328981879999999,0.03255000025,0.1630999947,0.03850000083,-0.9603999749,-8.330000234,-1.0878000140000001,-0.06595194043469614,-0.9978228006780053,0.3270679633174218,0.9450008187146685
710,-0.1169731766,-0.3624250889,0.545822978,-0.9065804481999999,0.03255000025,0.1630999947,0.03850000083,-0.9603999749,-8.330000234,-1.0878000140000001,-0.03958955842626927,-0.9992160261242876,0.30448649226990704,0.9525166539358605
711,-0.1162061393,-0.36549323799999994,0.4475780427,-0.7885605097,0.059325001839999995,0.1375500023,-0.01487500042,-0.9408000082,-8.839600098,-1.577799985,-0.01319958581075864,-0.9999128816724107,0.28173255684142956,0.9594929736144975
712,-0.1146720648,-0.36626026030000003,0.4091131091,-0.6569438577000001,0.05495000183999999,0.08522499800000001,-0.009450000376,-1.24460004,-8.241800201,-1.881600016,0.013199585810758273,-0.9999128816724107,0.25881904510252074,0.9659258262890683
713,-0.1146720648,-0.36626026030000003,0.4091131091,-0.6569438577000001,0.05495000183999999,0.08522499800000001,-0.009450000376,-1.24460004,-8.241800201,-1.881600016,0.039589558426268906,-0.9992160261242876,0.23575893550942728,0.9718115683235417
714,-0.1073852107,-0.368177861,0.5280821323,-0.3696906865,0.05495000183999999,0.08522499800000001,-0.009450000376,-1.24460004,-8.241800201,-1.881600016,0.06595194043469489,-0.9978228006780053,0.2125652895529766,0.9771468659711595
715,-0.1070016921,-0.3677943349,0.4874819815,-0.2851730883,0.04007499933,0.04567499816000001,-0.11935000300000001,-0.7545999959,-7.810599911000001,-1.8228000430000002,0.09226835946330156,-0.9957341762950346,0.18925124436041021,0.9819286972627067
716,-0.1035500243,-0.3670273125,0.5388997197,-0.16671237349999998,0.04007499933,0.04567499816000001,-0.11935000300000001,-0.7545999959,-7.810599911000001,-1.8228000430000002,0.11852047517170228,-0.9929516085716735,0.16583000525437425,0.9861543537181866
717,-0.1020159498,-0.3674108386,0.4668785632,-0.1356454492,0.039025000330000004,0.013825000380000002,-0.2112249947,-0.7644000157999999,-8.437800014,-1.803200004,0.14468999203354002,-0.9894770367246195,0.14231483827328512,0.9898214418809327
718,-0.09779724479,-0.3677943349,0.5555933118,-0.1189872399,0.039025000330000004,0.013825000380000002,-0.2112249947,-0.7644000157999999,-8.437800014,-1.803200004,0.1707586720869372,-0.9853128822394975,0.11871906265730503,0.9929278846732883
719,-0.09281150252,-0.3666437864,0.6670385599,-0.02076438814,0.0486499995,-0.021525000330000002,-0.2133249927,-0.8722000152,-8.575,-1.773799944,0.19670834764482786,-0.9804620471832867,0.09505604330418259,0.9954719225730846
720,-0.08667520434,-0.3674108386,0.8217532039,-0.04847403988,0.0486499995,-0.021525000330000002,-0.2133249927,-0.8722000152,-8.575,-1.773799944,0.2225209339563142,-0.9749279121818236,0.07133918319923235,0.9974521146102535
721,-0.08514112979,-0.368177861,0.6885822415,-0.08212033659,0.066674999,-0.06299999833,-0.229424994,-0.6761999831000001,-8.712199986,-1.607200044,0.24817844181022372,-0.9687143340637886,0.0475819158237424,0.998867339183008
722,-0.08130594343,-0.3674108386,0.7023506165000001,-0.030896065760000004,0.066674999,-0.06299999833,-0.229424994,-0.6761999831000001,-8.712199986,-1.607200044,0.2736629900720828,-0.961825643172819,0.02379769754610749,0.9997167946931291
723,-0.07708723843,-0.3670273125,0.7293741703,-0.01028625295,0.09659999967,-0.1090250003,-0.2570749927,-0.6174000099,-8.918000257000001,-1.401400065,0.2989568181457695,-0.9542666403496233,6.123233995736766e-17,1.0
724,-0.07133445889,-0.3647261858,0.8367248773999999,0.10680772359999999,0.09659999967,-0.1090250003,-0.2570749927,-0.6174000099,-8.918000257000001,-1.401400065,0.3240422983511651,-0.946042593586195,-0.023797697546107364,0.9997167946931291
725,-0.07056742162,-0.36434268950000004,0.6489897966,0.09882179648,0.117949996,-0.14839999199999998,-0.2911999893,-0.6664000362,-8.976800084,-1.352399966,0.3489019482091668,-0.9371592343544655,-0.04758191582374228,0.998867339183008
726,-0.06673223525000001,-0.3631921113,0.6579198837,0.12491033230000001,0.117949996,-0.14839999199999998,-0.2911999893,-0.6664000362,-8.976800084,-1.352399966,0.3735184426255117,-0.9276227536119478,-0.07133918319923224,0.9974521146102535
727,-0.06289704889,-0.3612745404,0.6783432364,0.19052924219999998,0.1372000027,-0.1869000053,-0.327424984,-0.7153999895,-8.986599958,-1.25440006,0.39787462596492107,-0.9174397974871562,-0.09505604330418248,0.9954719225730846
728,-0.05982890352999999,-0.35935693979999994,0.6542137861,0.2397225946,0.1372000027,-0.1869000053,-0.327424984,-0.7153999895,-8.986599958,-1.25440006,0.42195352400713715,-0.9066174626478128,-0.11871906265730492,0.9929278846732883
729,-0.05676075444,-0.3562887907,0.6562681793999999,0.33584347369999995,0.16065000529999998,-0.2275,-0.37975001340000003,-0.9016000018000001,-8.731799733999999,-0.9603999749,0.44573835577653775,-0.8951632913550626,-0.142314838273285,0.9898214418809328
730,-0.05445964262,-0.3509195149,0.6084913015,0.5272901654,0.16065000529999998,-0.2275,-0.37975001340000003,-0.9016000018000001,-8.731799733999999,-0.9603999749,0.46921254523706574,-0.8830852662071509,-0.16583000525437436,0.9861543537181865
731,-0.05100797489,-0.345933795,0.6378626227,0.6579121947,0.1830500007,-0.2465750027,-0.49297500130000005,-0.8133999690000001,-7.74200021,-0.8330000087999999,0.49235973284434165,-0.8703918045762199,-0.18925124436041033,0.9819286972627067
732,-0.04717278853,-0.3394139707,0.6816776395,0.8287146090999999,0.203349998,-0.27544999600000003,-0.639100008,-0.35279998479999997,-8.153600167999999,-0.5978000067,0.5151637869468956,-0.8570917527421049,-0.2125652895529767,0.9771468659711595
733,-0.04717278853,-0.3394139707,0.6816776395,0.8287146090999999,0.203349998,-0.27544999600000003,-0.639100008,-0.35279998479999997,-8.153600167999999,-0.5978000067,0.537608815028577,-0.8431943797272188,-0.2357589355094274,0.9718115683235417
734,-0.03681778535,-0.3240732253,0.7631112337,1.021856904,0.203349998,-0.27544999600000003,-0.639100008,-0.35279998479999997,-8.153600167999999,-0.5978000067,0.5596791747843078,-0.8287093708368188,-0.25881904510252085,0.9659258262890683
735,-0.03528371081,-0.3225391507,0.7608810067,0.9247931838,0.153125,-0.31272501469999997,-0.7544250106999999,-0.38220000789999997,-8.349599981,-0.5096000104999999,0.5813594850214596,-0.8136468209091604,-0.28173255684142967,0.9594929736144974
736,-0.02684630267,-0.32062155010000004,1.00693655,0.8265129924,0.153125,-0.31272501469999997,-0.7544250106999999,-0.38220000789999997,-8.349599981,-0.5096000104999999,0.6026346363792562,-0.7980172272802397,-0.3044864922699069,0.9525166539358605
737,-0.01994296722,-0.314868778,1.117052674,0.8699187636,0.11375,-0.310625,-0.7938000107,-0.2155999988,-8.084999883,-0.1469999967,0.6234898018587334,-0.7818314824680299,-0.32706796331742166,0.9450008187146685
738,-0.01265611406,-0.3102665544,1.19967258,0.8804475069,0.11375,-0.310625,-0.7938000107,-0.2155999988,-8.084999883,-0.1469999967,0.6439104471559148,-0.7651008665813088,-0.3494641795990983,0.9369497249997618
739,-0.003451667493,-0.3056643307,1.366440654,0.8932552934,0.109375,-0.292424984,-1.009400005,-0.2744000085,-7.065800154,-0.19599999559999998,0.6638823407910077,-0.7478370394583651,-0.3716624556603274,0.9283679330160727
740,0.006903334986,-0.3029797077,1.543099761,0.7986303568,0.109375,-0.292424984,-1.009400005,-0.2744000085,-7.065800154,-0.19599999559999998,0.6833915640265479,-0.7300520325410708,-0.39365021816194135,0.9192603035816655
741,0.01955944858,-0.2995280325,1.7210412030000002,0.7607557774,0.07735000134,-0.2871749973,-1.217474995,0.35279998479999997,-7.467600237999999,-0.4704000041,0.7024245205675984,-0.711758240489971,-0.4154150130018863,0.9096319953545184
742,0.02838037722,-0.2995280325,1.827554822,0.5567166805,0.07735000134,-0.2871749973,-1.217474995,0.35279998479999997,-7.467600237999999,-0.4704000041,0.7209679460372249,-0.6929684125462467,-0.4369445123693594,0.8994884619106033
743,0.03911889717,-0.2987609804,1.9139996769999998,0.4484961629,0.02835000008,-0.2744000053,-1.280474968,0.08819999619999999,-8.231999743,-0.882000035,0.7390089172206586,-0.6736956436465578,-0.45822652172741035,0.8888354486549235
744,0.05024093762,-0.2995280325,1.993298411,0.28915321829999996,0.02835000008,-0.2744000053,-1.280474968,0.08819999619999999,-8.231999743,-0.882000035,0.7565348610716954,-0.6539533652969687,-0.4792489867200565,0.8776789895672558
745,0.06021242216,-0.29914450649999996,1.9960080390000001,0.2418230623,-0.039899999500000005,-0.266875,-1.271900005,0.4410000175,-9.290400136,-1.097600034,0.7735335634750528,-0.6337553362123167,-0.5000000000000001,0.8660254037844386
746,0.07018390297999999,-0.3018291295,1.989612579,0.0381818898,-0.039899999500000005,-0.266875,-1.271900005,0.4410000175,-9.290400136,-1.097600034,0.7899931777585876,-0.6131156327275376,-0.5204678079730725,0.8538812920211479
747,0.0820729807,-0.30029505489999997,2.091478825,0.1029487029,-0.07087500333999999,-0.254100008,-1.2367249679999999,0.2939999934,-9.643200266000001,-1.617000064,0.8059022329494345,-0.5920486389876387,-0.5406408174555976,0.8412535328311812
748,0.09127742797,-0.2999115586,2.038891315,0.1020763814,-0.07087500333999999,-0.254100008,-1.2367249679999999,0.2939999934,-9.643200266000001,-1.617000064,0.8212496417683133,-0.5705690369231554,-0.5605076022408941,0.8281492787113708
749,0.1004818752,-0.2999115586,1.982062101,0.07749503851,-0.106049999,-0.2861250067,-1.221674957,0.5782000035,-10.33899949,-2.146199968,0.8360247083564337,-0.5486917960180743,-0.580056909571198,0.8145759520503358
750,0.1108368784,-0.30029505489999997,2.0145616530000003,0.035431440919999994,-0.106049999,-0.2861250067,-1.221674957,0.5782000035,-10.33899949,-2.146199968,0.850217135729614,-0.5264321628773562,-0.5992776665113468,0.8005412409243604
751,0.11965780710000001,-0.2999115586,1.955869198,0.03682200983,-0.1146250033,-0.32235000129999997,-1.1576250270000001,0.8133999690000001,-11.32880018,-2.0384000419999997,0.863817032954416,-0.5038056506013299,-0.6181589862206053,0.7860530947427874
752,0.1280952096,-0.300678581,1.8854534630000002,-0.01670925692,-0.08365000367,-0.3533250093,-1.033900032,0.950600028,-12.13240035,-1.783599964,0.8768149220412985,-0.48082802797435964,-0.636690174119088,0.7711197197453877
753,0.1280952096,-0.300678581,1.8854534630000002,-0.01670925692,-0.08365000367,-0.3533250093,-1.033900032,0.950600028,-12.13240035,-1.783599964,0.889201744549981,-0.45751530847532335,-0.654860733945285,0.7557495743542584
754,0.14918874199999999,-0.300678581,1.748550534,-0.01282339916,-0.08365000367,-0.3533250093,-1.033900032,0.950600028,-12.13240035,-1.783599964,0.9009688679024187,-0.4338837391175591,-0.6726603737012525,0.7399513643828839
755,0.1537909657,-0.300678581,1.707435012,-0.009419835173,-0.0432250005,-0.38639999869999997,-0.902650032,0.882000035,-12.26959975,-1.861999977,0.9121080913989873,-0.4099497891260545,-0.6900790114821118,0.7237340381050703
756,0.1606943011,-0.3014456332,1.7129067180000002,-0.050121277570000004,-0.0432250005,-0.38639999869999997,-0.902650032,0.882000035,-12.26959975,-1.861999977,0.9226116519336829,-0.3857301384597797,-0.7071067811865475,0.7071067811865476
757,0.1698987484,-0.3022126555,1.6736949680000002,-0.0816385895,-0.0175,-0.4408250093,-0.7755999947,1.1857999940000001,-12.55380018,-1.666000018,0.9324722294043558,-0.361241666187153,-0.7237340381050702,0.6900790114821119
758,0.17565152050000002,-0.3018291295,1.5367435219999999,-0.055875964460000004,-0.0175,-0.4408250093,-0.7755999947,1.1857999940000001,-12.55380018,-1.666000018,0.9416829518142115,-0.33650143872273924,-0.7399513643828837,0.6726603737012526
759,0.1825548559,-0.300678581,1.5817444319999998,0.014775713909999998,-0.002625000104,-0.49419999600000003,-0.6177499865999999,1.068199974,-12.67139983,-1.7933999840000001,0.9502374000610148,-0.3115266979333923,-0.7557495743542582,0.6548607339452852
760,0.1894581914,-0.30029505489999997,1.5478769540000001,0.03952294216,-0.002625000104,-0.49419999600000003,-0.6177499865999999,1.068199974,-12.67139983,-1.7933999840000001,0.9581296124106679,-0.28633484912211343,-0.7711197197453876,0.6366901741190882
761,0.1959780157,-0.30106210710000003,1.414465189,-0.0052775051439999995,0.0017500000260000001,-0.508025012,-0.4385499907,1.4504000190000002,-12.55380018,-1.617000064,0.9653540886520384,-0.26094344889801746,-0.7860530947427873,0.6181589862206054
762,0.2017307878,-0.30029505489999997,1.3502656219999998,0.03387781233,0.0017500000260000001,-0.508025012,-0.4385499907,1.4504000190000002,-12.55380018,-1.617000064,0.9719057939301474,-0.2353701929408432,-0.8005412409243605,0.5992776665113467
763,0.2067165226,-0.2995280325,1.245563507,0.05375362187999999,0.008050000146,-0.53375,-0.2911999893,1.1662000270000001,-12.7792002,-1.21519998,0.9777801622550408,-0.20963290366854634,-0.8145759520503357,0.5800569095711983
764,0.210935235,-0.2956928313,1.1299945120000001,0.2375382781,0.008050000146,-0.53375,-0.2911999893,1.1662000270000001,-12.7792002,-1.21519998,0.9829730996839017,-0.18374951781657092,-0.8281492787113709,0.5605076022408939
765,0.21553745870000002,-0.292624712,1.068642855,0.3446447253,0.007000000104000001,-0.547575016,-0.132299999,0.8428000286,-12.47540002,-0.7447999761,0.9874809871741872,-0.15773807393743808,-0.8412535328311813,0.5406408174555973
766,0.21822208170000001,-0.2861048877,0.9265338181999999,0.5951797961999999,0.007000000104000001,-0.547575016,-0.132299999,0.8428000286,-12.47540002,-0.7447999761,0.9913006831057967,-0.13161669982939397,-0.853881292021148,0.5204678079730723
767,0.2216737568,-0.2803521156,0.8681449294,0.7508504390999999,0.01767499983,-0.5496749972999999,-0.01172500029,0.9408000082,-12.24019954,-0.9309999883,0.9944295254705183,-0.10540359990284821,-0.8660254037844387,0.49999999999999994
768,0.2255089432,-0.27306523920000003,0.8606223464,0.9327002764,0.01767499983,-0.5496749972999999,-0.01172500029,0.9408000082,-12.24019954,-0.9309999883,0.996865333727226,-0.07911704249342494,-0.8776789895672557,0.47924898672005667
769,0.22589245440000003,-0.2657783926,0.6606723666,1.070133209,0.021875,-0.5304249907,0.08330000401000001,0.9603999749,-11.52479999,-0.6174000099,0.9986064103215336,-0.05277534713046272,-0.8888354486549234,0.4582265217274105
770,0.2243583798,-0.2569574714,0.3931292295,1.259554505,0.021875,-0.5304249907,0.08330000401000001,0.9603999749,-11.52479999,-0.6174000099,0.9996515418688487,-0.026396871769837526,-0.8994884619106032,0.43694451236935955
