,leftJointPosition,rightJointPosition,leftJointVelocity,rightJointVelocity,imuGyroX,imuGyroY,imuGyroZ,imuAccX,imuAccY,imuAccZ,leftGaitPhaseX,leftGaitPhaseY,rightGaitPhaseX,rightGaitPhaseY
281,-0.5733603239,0.04755630717,1.099865675,0.4711011946,0.301524992,0.7969500159999999,-0.2112249947,-2.508800119,-10.67219987,-0.7742000356000001,-0.9993276470109054,-0.03666406850919869,1.0,-2.4492935982947064e-16
282,-0.5722097754,0.04563871399,0.8592403531,0.2525867522,0.3772999907,0.752149992,-0.2005500007,-3.2241999630000002,-10.89759989,-1.23480002,-0.9981327248931006,-0.061082431987226224,1.0,0.0
283,-0.5668405294,0.04295408353,0.7693800926000001,0.014295184980000002,0.3772999907,0.752149992,-0.2005500007,-3.2241999630000002,-10.89759989,-1.23480002,-0.996341234502524,-0.08546428745380502,0.9995210358660036,0.030946710024671226
284,-0.5641558766,0.04333760217,0.8398097754,0.03532756865,0.3772999907,0.752149992,-0.2005500007,-3.2241999630000002,-10.89759989,-1.23480002,-0.9939542465848803,-0.10979506225638239,0.9980846022772978,0.061863775321008445
285,-0.562238276,0.04333760217,0.7271750569,0.027244640510000005,0.432774992,0.7245000267,-0.1961750007,-3.283000082,-11.18180032,-0.7153999895,-0.9909731878054056,-0.13406021427251416,0.9956920752342223,0.09272157955820091
286,-0.5603206754,0.04333760217,0.6268038154,0.02252728865,0.432774992,0.7245000267,-0.1961750007,-3.283000082,-11.18180032,-0.7153999895,-0.9873998398961705,-0.1582452406014693,0.9923457466060636,0.12349056317328166
287,-0.5580195785000001,0.04410463944,0.5779194236,0.05815875903,0.5223750067,0.708399992,-0.2325749993,-3.13599993,-11.25040002,-0.1077999994,-0.9832363385911684,-0.182335686232381,0.9880488219356085,0.15414125168706835
288,-0.5549514294,0.04448815808,0.5751076936999999,0.06956386566,0.5223750067,0.708399992,-0.2325749993,-3.13599993,-11.25040002,-0.1077999994,-0.9784851723498197,-0.20631715268378376,0.9828054173684644,0.18464428393860022
289,-0.5545679331000001,0.04333760217,0.4372305274,-0.004160426557,0.4968249893,0.6594000053,-0.17272499800000002,-3.400600028,-11.40720034,0.235200002,-0.9731491808696592,-0.2301753066093565,0.9766205557100867,0.21497044021102407
290,-0.553417325,0.04295408353,0.38113212590000006,-0.02312978543,0.45202499869999996,0.633674984,-0.059675001500000005,-3.439800107,-11.90700033,0.17639999239999998,-0.9672315533890934,-0.2538958883647418,0.9695001616142914,0.24509067022198688
291,-0.5503491759,0.04295408353,0.3478389382,-0.02312978543,0.45202499869999996,0.633674984,-0.059675001500000005,-3.439800107,-11.90700033,0.17639999239999998,-0.9607358267812419,-0.27746472053031085,0.9614510559078624,0.2749761209517228
292,-0.5488151312,0.03643426672,0.39593768119999995,-0.36179053780000003,0.45202499869999996,0.633674984,-0.059675001500000005,-3.439800107,-11.90700033,0.17639999239999998,-0.9536658834400056,-0.30086771638478205,0.9524809490566877,0.30459816428217606
293,-0.5472810268,0.03451667354,0.4021676183,-0.38102400299999994,0.336699996,0.6198499679999999,-0.03622499883,-3.8611999389999996,-11.81879971,0.9701999947,-0.946025948959619,-0.324090888324637,0.942598433779687,0.3339284244206847
294,-0.5430623293,0.033366117630000004,0.5207502842,-0.34384453299999995,0.336699996,0.6198499679999999,-0.03622499883,-3.8611999389999996,-11.81879971,0.9701999947,-0.9378205896090793,-0.3471203562242911,0.9318129768176031,0.36293880508195453
295,-0.5399941802,0.03221556172,0.5472372174,-0.31352978940000004,0.20125,0.6432999706,-0.02555000067,-4.654999942,-12.27940021,0.9898000345,-0.92905470960296,-0.3699423557320245,0.9201349098645432,0.39160151640228485
296,-0.5327073336,0.029147414489999995,0.7772249579,-0.3923490942,0.20125,0.6432999706,-0.02555000067,-4.654999942,-12.27940021,0.9898000345,-0.9197335481702371,-0.39254324649672195,0.907575419670957,0.4198891015602646
297,-0.5269545913,0.02684630267,0.8772077559999999,-0.40832182770000003,0.107275002,0.6594000053,-0.1867250013,-3.65539996,-10.5643995,-0.048999998899999994,-0.9098626764228854,-0.4149095203204956,0.8941465373275327,0.44777446307843766
298,-0.5192841886999999,0.02032648586,1.057398558,-0.6386386156,0.107275002,0.6594000053,-0.1867250013,-3.65539996,-10.5643995,-0.048999998899999994,-0.8994479940261123,-0.43702780923232176,0.8798611267402745,0.4752308887807426
299,-0.5127643943,0.01035500225,1.121120095,-1.003465652,-0.005775000229,0.6497750187,-0.3125500107,-3.802400112,-12.32840016,-0.8231999889,-0.8884957256722193,-0.4588848934778702,0.8647328723078038,0.5022320773808612
300,-0.5070115924,0.0007670372142,1.120958686,-1.24823606,-0.005775000229,0.6497750187,-0.3125500107,-3.802400112,-12.32840016,-0.8231999889,-0.8770124173602023,-0.48046770942074174,0.8487762658126871,0.528752163676964
301,-0.4997247458,-0.01188907679,1.204775333,-1.591454029,-0.08802500367,0.6594000053,-0.10657500269999999,-4.037600005,-13.06339946,-1.283799973,-0.8650049324833106,-0.5017633573503982,0.8320065925393468,0.5547657433287182
302,-0.492054373,-0.02569574676,1.2958680390000001,-1.900650144,-0.08802500367,0.6594000053,-0.10657500269999999,-4.037600005,-13.06339946,-1.283799973,-0.8524804477269029,-0.5227591091921203,0.814439916631857,0.5802478971928238
303,-0.4882192016,-0.03988593444,1.161575437,-2.1506464480000003,-0.063349998,0.6924749947,0.07472499967,-3.9200000580000003,-11.82860017,-0.9309999883,-0.8394464487790566,-0.543442416114376,0.7960930657056438,0.6051742151937651
304,-0.48361697789999997,-0.05522667989,1.088527918,-2.389245987,-0.063349998,0.6924749947,0.07472499967,-3.9200000580000003,-11.82860017,-0.9309999883,-0.8259107258564896,-0.5638009160290594,0.7769836147278382,0.6295208197069121
305,-0.4782477021,-0.07095094025,1.07479012,-2.596482277,-0.01224999979,0.7073499679999999,0.16117500070000002,-3.400600028,-11.00540025,-0.8036000222,-0.8118813690484683,-0.5838224409801193,0.7571298691817174,0.6532643884315716
306,-0.4732619524,-0.08514112979,1.04965663,-2.6670582290000002,-0.01224999979,0.7073499679999999,0.16117500070000002,-3.400600028,-11.00540025,-0.8036000222,-0.7973667634814902,-0.6034950244161532,0.736550847531366,0.6763821767320797
307,-0.46904325490000004,-0.09933131933,0.9919489026,-2.705869675,0.047600000499999996,0.6711249733,0.1975749993,-2.43039996,-9.594199729,-1.24460004,-0.782375584307623,-0.6228069083426302,0.7152662630033503,0.6988520394255298
308,-0.46367400880000004,-0.1173566952,0.9510159492,-2.792464256,0.047600000499999996,0.6711249733,0.1975749993,-2.43039996,-9.594199729,-1.24460004,-0.7669167915195059,-0.641746550349456,0.6932965047028621,0.7206524519952696
309,-0.45868825909999994,-0.129245773,1.016931176,-2.82705307,0.07630000234,0.6049749946999999,0.1249499977,-1.8521999569999998,-9.00620029,-1.6953999309999999,-0.7509996245950975,-0.6603026305096948,0.6706626180824184,0.7417625312098449
310,-0.4521684349,-0.1422854066,1.1046586040000002,-2.7644379139999997,0.07630000234,0.6049749946999999,0.1249499977,-1.8521999569999998,-9.00620029,-1.6953999309999999,-0.7346335969753898,-0.6784640581453085,0.6473862847818277,0.7621620551276365
311,-0.4479497373,-0.1564755887,1.045570254,-2.777612209,0.05284999967,0.5227250147,0.05232500017,-1.558199945,-9.172799897,-2.1756000280000003,-0.7178284903783698,-0.6962199784558833,0.6234898018587336,0.7818314824680297
312,-0.4395123124,-0.1721998602,1.164210439,-2.723024368,0.05284999967,0.5227250147,0.05232500017,-1.558199945,-9.172799897,-2.1756000280000003,-0.7005943489526432,-0.7135597790063717,0.5989960604296337,0.8007519713305604
313,-0.43491008880000004,-0.1852394938,1.170093775,-2.694121122,-0.003674999885,0.43837498659999996,0.047075001,-1.76400007,-9.094399738,-2.695000058,-0.6829414732742017,-0.7304730960699803,0.5739285237418321,0.8189053972441025
314,-0.4280067682,-0.19712856410000001,1.22263968,-2.6109755040000002,-0.003674999885,0.43837498659999996,0.047075001,-1.76400007,-9.094399738,-2.695000058,-0.6648804141899318,-0.7469498208224061,0.548311204697331,0.8362743705288125
315,-0.4199528694,-0.2097846717,1.326668501,-2.5936675069999997,-0.067724998,0.371174984,0.01715000033,-1.705199951,-8.96700021,-2.577400112,-0.6464219665115397,-0.762980105383721,0.5221686428501929,0.8528422529541954
316,-0.4103648961,-0.2201396823,1.4249894619999999,-2.454093695,-0.067724998,0.371174984,0.01715000033,-1.705199951,-8.96700021,-2.577400112,-0.6275771625636586,-0.7785543687042975,0.4955258808994094,0.8685931736773346
317,-0.4042285979,-0.2324122787,1.453327775,-2.454349995,-0.1295000017,0.2943499947,-0.013825000380000002,-1.969800049,-9.26099993,-2.2049999419999997,-0.6083572655900075,-0.793663302291248,0.46840844069979015,0.8835120444460229
318,-0.39694175119999997,-0.24315080050000001,1.4635920519999999,-2.372704029,-0.1295000017,0.2943499947,-0.013825000380000002,-1.969800049,-9.26099993,-2.2049999419999997,-0.5887737630215186,-0.808297875771971,0.4408422988138582,0.8975845740522244
319,-0.3900384307,-0.2542728484,1.4444181919999999,-2.3252029419999998,-0.17762499329999998,0.2133249927,-0.002099999953,-1.9893999430000002,-9.143400276,-2.067799956,-0.5688383596104873,-0.8224493422914568,0.4128538616281658,0.9107972820220267
320,-0.3819845319,-0.2661619186,1.4867620469999998,-2.33539176,-0.17762499329999998,0.2133249927,-0.002099999953,-1.9893999430000002,-9.143400276,-2.067799956,-0.5485629704348226,-0.836109243740149,0.38446994005786955,0.9231375115289695
321,-0.37623175979999995,-0.2769004405,1.410039544,-2.287595272,-0.2000250053,0.135449996,0.025725000499999998,-1.842399937,-8.86899972,-1.6267999380000002,-0.5279597137765898,-0.8492694158092244,0.3557177238637984,0.9345934415183741
322,-0.3685613871,-0.2880224884,1.375939965,-2.272335052,-0.2000250053,0.135449996,0.025725000499999998,-1.842399937,-8.86899972,-1.6267999380000002,-0.5070409038791076,-0.8619219928702698,0.3266247556066123,0.9451540980310675
323,-0.362808615,-0.297993958,1.316226482,-2.199155807,-0.2042250013,0.07034999967,0.03534999967,-1.567999965,-8.908199799,-1.323000053,-0.4858190435869156,-0.8740594126764465,0.29721890426300424,0.9548093647156479
324,-0.3585898876,-0.3083489537,1.255418301,-2.162011623,-0.2042250013,0.07034999967,0.03534999967,-1.567999965,-8.908199799,-1.323000053,-0.46430681687302006,-0.8856744208823262,0.267528338529221,0.9635499925192229
325,-0.35130304100000004,-0.3183204532,1.250659227,-2.122792244,-0.1979250073,0.02117500067,0.058799998160000005,-1.470000058,-8.947399878999999,-1.107399981,-0.4425170812578833,-0.8967600753796993,0.23758149983747123,0.9713676085473396
326,-0.3474678695,-0.3282919228,1.1275016070000001,-1.99142909,-0.1979250073,0.02117500067,0.058799998160000005,-1.470000058,-8.947399878999999,-1.107399981,-0.4204628601246853,-0.9073097504467641,0.2074070751110751,0.9782547240846163
327,-0.3417150676,-0.3367293477,1.137353778,-1.906703949,-0.1979250073,-0.001225000005,0.07472499967,-1.4504000190000002,-8.702400112000001,-1.303400013,-0.3981573349354492,-0.9173171407082179,0.17703396928444834,0.984204741768395
328,-0.3386469185,-0.3436326683,1.008339286,-1.765582681,-0.1979250073,-0.001225000005,0.07472499967,-1.4504000190000002,-8.702400112000001,-1.303400013,-0.3756138373526927,-0.926776264903879,0.14649127761424927,0.9892119619085411
329,-0.3332776725,-0.3509195149,1.026895046,-1.676392436,-0.188300004,-0.01925000042,0.0684250015,-1.646399978,-8.418200266,-1.5091999919999999,-0.35284584127129953,-0.9356814694635931,0.11580825780820891,0.9932715879473385
330,-0.3275249004,-0.35743933920000004,1.06761837,-1.571074724,-0.188300004,-0.01925000042,0.0684250015,-1.646399978,-8.418200266,-1.5091999919999999,-0.3298669547653853,-0.9440274318862834,0.08501430199834731,0.9963797310542472
331,-0.3240732253,-0.3635756373,0.9665895104000001,-1.473645568,-0.17972500800000002,-0.029925000669999997,0.051275001169999994,-1.813000023,-8.437800014,-1.666000018,-0.3066909119549618,-0.9518091639211265,0.05413890858541761,0.9985334138511238
332,-0.317553401,-0.3685613871,1.054068565,-1.3438112740000001,-0.17972500800000002,-0.029925000669999997,0.051275001169999994,-1.813000023,-8.437800014,-1.666000018,-0.2833315647972739,-0.9590220145489509,0.02321165398155565,0.9997305732643373
333,-0.312184155,-0.3735471368,1.070413828,-1.248978734,-0.1701000047,-0.009800000042,0.005425000042,-1.74440003,-8.447599888,-1.538600051,-0.25980287480769865,-0.9656616727620784,-0.007737835721802105,0.9999700625010443
334,-0.3068148792,-0.3777658343,1.083353877,-1.1424707170000001,-0.1701000047,-0.009800000042,0.005425000042,-1.74440003,-8.447599888,-1.538600051,-0.23611890471516744,-0.9717241701409457,-0.038679913133588865,0.999251652147735
335,-0.3022126555,-0.38236805799999996,1.040491819,-1.0902478690000001,-0.16485000130000002,-0.0001749999961,-0.04795000017,-1.6561999980000002,-8.663200032999999,-1.4895999519999998,-0.21229381005709333,-0.9772058832259672,-0.06958493796318124,0.997576030389995
336,-0.2972269058,-0.3854362071,1.014385581,-0.9712278843000001,-0.16485000130000002,-0.0001749999961,-0.04795000017,-1.6561999980000002,-8.663200032999999,-1.4895999519999998,-0.18834183071882943,-0.982103535683219,-0.10042330541367238,0.9949448023532724
337,-0.29109063739999996,-0.3885043561,1.0685241220000001,-0.8755188584,-0.15942499400000001,0.0019249999899999999,-0.07455000401,-1.499399972,-8.800400019,-1.3818000259999998,-0.16427728242270923,-0.986414200262653,-0.13116547454114227,0.9913604885652831
338,-0.2864884138,-0.3919560313,1.024876833,-0.8294123411,-0.15942499400000001,0.0019249999899999999,-0.07455000401,-1.499399972,-8.800400019,-1.3818000259999998,-0.14011454817176922,-0.9901353005476681,-0.16178199655276473,0.9868265225415261
339,-0.281119138,-0.39118897909999994,1.0332176690000001,-0.5661342144,-0.1498000073,0.009450000376,-0.0875,-1.499399972,-8.614200079,-1.362199986,-0.11586806965324999,-0.9932646124949935,-0.1922435430166368,0.9813472474962217
340,-0.2745993137,-0.3938736022,1.1085679529999999,-0.5464915037,-0.1498000073,0.009450000376,-0.0875,-1.499399972,-8.614200079,-1.362199986,-0.09155233860702724,-0.9958002657639654,-0.22252093395631434,0.9749279121818236
341,-0.2707641423,-0.3957912028,1.0258550640000001,-0.5050982237,-0.1200500023,0.005250000209,-0.1396500003,-1.479799932,-8.084999883,-1.411199939,-0.06718188816412622,-0.9977407448343998,-0.2525851658031348,0.9675746658610915
342,-0.2673124671,-0.39770880340000003,0.9339625239,-0.4678094089,-0.1200500023,0.005250000209,-0.1396500003,-1.479799932,-8.084999883,-1.411199939,-0.04277128416049807,-0.9990848899123947,-0.2824074391795572,0.9592945524165374
343,-0.2611761689,-0.4000099003,0.9954595566,-0.4620242715,-0.11252499699999999,-0.02257499933,-0.159950006,-1.1857999940000001,-8.770999813,-1.5190000119999998,-0.018335116431244688,-0.9998318976235219,-0.31195918648689785,0.950095503602892
344,-0.2561904192,-0.3996263742,0.9956092237999999,-0.3191201687,-0.11252499699999999,-0.02257499933,-0.159950006,-1.1857999940000001,-8.770999813,-1.5190000119999998,0.00611200990949159,-0.9999813214929898,-0.34121209927104246,0.9399863314490526
345,-0.2512046993,-0.39924287799999997,0.9897733927,-0.2126416266,-0.07507499932999999,-0.025725000499999998,-0.1492749953,-1.5091999919999999,-8.486799967,-1.479799932,0.03055548319777821,-0.9995330722124958,-0.37013815533991445,0.9289767198167914
346,-0.2454519123,-0.39847582579999996,1.0307360890000001,-0.1163517758,-0.07507499932999999,-0.025725000499999998,-0.1492749953,-1.5091999919999999,-8.486799967,-1.479799932,0.054980693953057436,-0.9984874176936033,-0.3987096456067234,0.9170772151243106
347,-0.2404661626,-0.3988593519,1.027417421,-0.1023386419,-0.039899999500000005,-0.05774999917,-0.21980000730000002,-1.1857999940000001,-8.565200126,-1.6365999580000001,0.07937304360999839,-0.996844982907616,-0.4268992006332845,0.90429921624353
348,-0.23586393890000001,-0.39770880340000003,0.9912932515,-0.02071300894,-0.039899999500000005,-0.05774999917,-0.21980000730000002,-1.1857999940000001,-8.565200126,-1.6365999580000001,0.10371795324383407,-0.994606749512042,-0.45467981684797554,0.8906549635807861
349,-0.2301111668,-0.3980922997,1.030968785,-0.040845416489999994,-0.018549998999999998,-0.1111249983,-0.23887499329999998,-1.362199986,-9.172799897,-1.6953999309999999,0.12800087228395515,-0.9917740552638724,-0.4820248824132216,0.8761575273514004
350,-0.2270430177,-0.39770880340000003,0.9150421023,-0.013386871670000001,-0.018549998999999998,-0.1111249983,-0.23887499329999998,-1.362199986,-9.172799897,-1.6953999309999999,0.15220728721055776,-0.9883485932200252,-0.5089082027177286,0.8608207950593498
351,-0.219372645,-0.39694175119999997,1.05702877,0.03257438913,0.011199999750000002,-0.152774992,-0.2154250073,-1.313200033,-9.339400089,-1.6561999980000002,0.17632273022914577,-0.9843324107254317,-0.5353040254690394,0.8446594581940358
352,-0.21553745870000002,-0.3946406543,0.9770807624,0.1513480544,0.011199999750000002,-0.152774992,-0.2154250073,-1.313200033,-9.339400089,-1.6561999980000002,0.2003327879177081,-0.97972790818937,-0.5611870653623823,0.8276889981568906
353,-0.20825059710000002,-0.3938736022,1.090296388,0.15813824529999998,0.04007499933,-0.19652499199999998,-0.21875,-1.23480002,-9.251200056,-1.470000058,0.2242231098413896,-0.9745378376507791,-0.586532528302183,0.8099256714313041
354,-0.202497825,-0.3934900761,1.104791641,0.13534410300000002,0.04007499933,-0.19652499199999998,-0.21875,-1.23480002,-9.251200056,-1.470000058,0.24797941712952382,-0.9687653011334074,-0.6113161351530259,0.7913864940100807
355,-0.19827911260000003,-0.3934900761,1.032440424,0.08574764431,0.067900002,-0.24762499329999998,-0.23887499329999998,-1.25440006,-9.22179985,-1.342599946,0.271587511009893,-0.962413748791782,-0.6355141449973252,0.7720892250953375
356,-0.1906087548,-0.3900384307,1.164858937,0.24505625670000003,0.067900002,-0.24762499329999998,-0.23887499329999998,-1.25440006,-9.22179985,-1.342599946,0.2950332812951032,-0.9554869768491062,-0.6591033778774227,0.7520523500864627
357,-0.1867735684,-0.3900384307,1.06625402,0.1804788709,0.09764999866,-0.292424984,-0.2505999947,-1.3818000259999998,-9.339400089,-1.175999974,0.3183027148160299,-0.9479891253283158,-0.6820612370003218,0.7312950628724296
358,-0.1810207814,-0.3888878822,1.089955091,0.1888294369,0.09764999866,-0.292424984,-0.2505999947,-1.3818000259999998,-9.339400089,-1.175999974,0.34138190379726785,-0.9399246755776512,-0.7043657303837964,0.7098372474454275
359,-0.17680208379999998,-0.387737304,1.03123939,0.2086628377,0.1200500023,-0.3491250134,-0.251825006,-1.303400013,-9.182599771,-1.175999974,0.36425705416958665,-0.9312984475922286,-0.7259954919231306,0.6876994588534235
360,-0.1702822596,-0.387737304,1.097964406,0.1511828154,0.1200500023,-0.3491250134,-0.251825006,-1.303400013,-9.182599771,-1.175999974,0.3869144938144327,-0.9221155971332018,-0.7469298018583169,0.6649029035099
361,-0.1641459614,-0.38697028159999997,1.138242483,0.1517669857,0.1307249963,-0.38220000270000004,-0.258125,-1.4504000190000002,-8.996399832,-1.195600013,0.40934068073553825,-0.912381612646247,-0.7671486066220966,0.6414694188796342
362,-0.1595437378,-0.3858197331,1.091885328,0.1785092503,0.1307249963,-0.38220000270000004,-0.258125,-1.4504000190000002,-8.996399832,-1.195600013,0.4315222111527636,-0.9021023119812019,-0.7866325380498416,0.617421452559971
363,-0.1549415141,-0.38620322939999996,1.050048351,0.1174908876,0.1372000027,-0.42052501200000003,-0.2677500033,-1.440599999,-8.829800224,-0.9309999883,0.4534458275133212,-0.8912838389148315,-0.8053629319328659,0.5927820407776352
364,-0.1476546675,-0.3865867555,1.162544489,0.06380620598999999,0.1372000027,-0.42052501200000003,-0.2677500033,-1.440599999,-8.829800224,-0.9309999883,0.47509842641561023,-0.8799326594787871,-0.8233218458973983,0.56757478632168
365,-0.1442029923,-0.3858197331,1.043048024,0.09023954719,0.1350999963,-0.437675004,-0.3029249907,-1.3818000259999998,-8.457399762,-0.5389999971,0.49646706644091354,-0.8680555580949606,-0.8404920765920896,0.5418238359337074
366,-0.1380666941,-0.3865867555,1.080294967,0.02640544437,0.1350999963,-0.437675004,-0.3029249907,-1.3818000259999998,-8.457399762,-0.5389999971,0.5175389758882806,-0.8556596335205429,-0.856857176167589,0.5155538571770221
367,-0.132313922,-0.3865867555,1.108847141,0.01924627461,0.1307249963,-0.46217499729999995,-0.372400012,-1.332800072,-8.114400089,-0.2548000053,0.5383015604079717,-0.8427522946052077,-0.8724014680324055,0.4887900148068737
368,-0.1261776239,-0.3865867555,1.1374204159999999,0.014116805980000003,0.1307249963,-0.46217499729999995,-0.372400012,-1.332800072,-8.114400089,-0.2548000053,0.5587424105289068,-0.8293412558629569,-0.8871100618699553,0.46155794666442923
369,-0.1211918816,-0.387737304,1.099168539,-0.05523562058999999,0.1350999963,-0.4780999947,-0.4779249907,-1.146599987,-7.947799897,-0.01960000093,0.578849309075607,-0.8154345328612791,-0.900968867902419,0.43388373911755823
370,-0.1146720648,-0.3881208301,1.134399056,-0.07581121475,0.1350999963,-0.4780999947,-0.4779249907,-1.146599987,-7.947799897,-0.01960000093,0.5986102384702107,-0.8010404374303693,-0.9139646103877377,0.4057939020719641
371,-0.10585113609999999,-0.387737304,1.3025729659999998,-0.04266743734,0.142450006,-0.49524998659999997,-0.5995499706,-0.9701999947,-7.986999977000001,0.06860000212,0.6180133879151944,-0.7861675726952769,-0.9260848403368209,0.3773153435765962
372,-0.1008653939,-0.387737304,1.220567107,-0.02766839787,0.142450006,-0.49524998659999997,-0.5995499706,-0.9701999947,-7.986999977000001,0.06860000212,0.6370471604524943,-0.7708248279339567,-0.937317947438786,0.3484753440476689
373,-0.09242798388000001,-0.3888878822,1.3426100019999998,-0.07206533848999999,0.1478749967,-0.5101249932999999,-0.7063000106999999,-1.009400001,-8.124199962999999,-0.2744000085,0.6557001798948321,-0.7550213732642836,-0.9476531711828023,0.31930153013598017
374,-0.08437409252,-0.38927137850000004,1.409166336,-0.07639392465,0.1478749967,-0.5101249932999999,-0.7063000106999999,-1.009400001,-8.124199962999999,-0.2744000085,0.6739612976250834,-0.7387666541632167,-0.9570806111658899,0.2898218482625605
375,-0.07593668252,-0.39157250520000003,1.48047471,-0.17401334640000002,0.140350008,-0.5101249932999999,-0.794849968,-0.6761999831000001,-7.957599771,-0.5096000104999999,0.6918195992596272,-0.7220703858213884,-0.9655912365767939,0.2600645378480082
376,-0.06711575388999999,-0.3934900761,1.5501687530000001,-0.2228731066,0.140350008,-0.5101249932999999,-0.794849968,-0.6761999831000001,-7.957599771,-0.5096000104999999,0.7092644111717048,-0.7049425473364866,-0.9731768948468549,0.23005810426114887
377,-0.05791131034,-0.3957912028,1.620807052,-0.2791113257,0.1200500023,-0.4963000107,-0.8961749840000001,-0.46059998420000003,-8.614200079,-0.5096000104999999,0.7262853068708801,-0.6873933757489021,-0.9798303194595845,0.19983129151293735
378,-0.04717278853,-0.39694175119999997,1.760604024,-0.2504537106,0.1200500023,-0.4963000107,-0.8961749840000001,-0.46059998420000003,-8.614200079,-0.5096000104999999,0.7428721132347862,-0.6694333599232137,-0.9855451369114676,0.1694130547217557
379,-0.03796834126,-0.39694175119999997,1.785562277,-0.18221679329999999,0.09555000067,-0.48457500929999997,-0.9591750240000001,-0.4115999945,-8.486799967,-0.5488000169,0.7590149165894422,-0.651073234279157,-0.9903158728173205,0.1388325323764886
380,-0.02799685858,-0.39924287799999997,1.8416508440000001,-0.2570076585,0.09555000067,-0.48457500929999997,-0.9591750240000001,-0.4115999945,-8.486799967,-0.5488000169,0.7747040686345041,-0.632323972375827,-0.9941379571543596,0.10811901842394193
381,-0.01840889268,-0.3988593519,1.858906746,-0.1666797251,0.067900002,-0.47705000399999997,-1.064874973,-0.18619999399999998,-9.074799991,-1.1857999940000001,0.7899301922098956,-0.6131967803529609,-0.997007728639956,0.0773019342073389
382,-0.008053890429,-0.4007769525,1.911051989,-0.23017442230000001,0.05495000183999999,-0.47705000399999997,-1.056300011,0.009800000465,-9.613800061000001,-1.440599999,0.8046841869003958,-0.593703090233198,-0.998922438238881,0.04641080028278814
383,0.009971483611,-0.40039342640000003,2.055970907,-0.1234699488,0.05495000183999999,-0.47705000399999997,-1.056300011,0.009800000465,-9.613800061000001,-1.440599999,0.818957234474813,-0.5738545530893401,-0.9998802517966848,0.015475208140706331
384,0.0130396327,-0.40154397490000004,1.997428894,-0.1732998341,0.05495000183999999,-0.47705000399999997,-1.056300011,0.009800000465,-9.613800061000001,-1.440599999,0.8327408041565012,-0.5536630320806906,-0.9998802517966848,-0.015475208140706529
385,0.02224407904,-0.401927501,1.9599442480000002,-0.16233947869999998,0.05495000183999999,-0.4697000027,-1.0125500109999999,0.4214000143,-9.94699986,-1.264199933,0.8460266577220728,-0.5331405953626291,-0.998922438238881,-0.046410800282788336
386,0.0302979704,-0.40346157549999995,1.8506155009999998,-0.2125463188,0.05495000183999999,-0.4697000027,-1.0125500109999999,0.4214000143,-9.94699986,-1.264199933,0.8588068544252571,-0.512299508873662,-0.997007728639956,-0.07730193420733909
387,0.04103649035,-0.4057626724,1.930282712,-0.2774522007,0.05722499967,-0.46532500270000005,-0.9773749733,0.6761999831000001,-10.52520001,-0.9800000146,0.8710737557429569,-0.49115222900426647,-0.9941379571543596,-0.10811901842394168
388,0.05100797489,-0.4092143476,1.957519889,-0.3931048512,0.05722499967,-0.46532500270000005,-0.9773749733,0.6761999831000001,-10.52520001,-0.9800000146,0.8828200299406744,-0.46971139515190247,-0.9903158728173205,-0.1388325323764888
389,0.05714427307,-0.41420009729999996,1.7602988480000001,-0.5533129573,0.03587499917,-0.4707499933,-0.8664249706,1.048600008,-11.98540049,-1.048600008,0.8940386564545773,-0.44798982216663624,-0.9855451369114676,-0.16941305472175547
390,0.06596519798,-0.4199528694,1.74439168,-0.7065365314000001,0.03587499917,-0.4707499933,-0.8664249706,1.048600008,-11.98540049,-1.048600008,0.904722930087575,-0.42600049269191337,-0.9798303194595845,-0.19983129151293713
391,0.07478612661,-0.424171567,1.7471473219999998,-0.7514185904999999,0.03359999925,-0.454649992,-0.65625,0.8133999690000001,-12.24019954,-1.332800072,0.9148664650169124,-0.4037565494050328,-0.9731768948468549,-0.23005810426114864
392,0.08168946207000001,-0.42647269369999996,1.661981463,-0.6709393859,0.03359999925,-0.454649992,-0.65625,0.8133999690000001,-12.24019954,-1.332800072,0.9244631986108762,-0.38127128716197295,-0.9655912365767939,-0.26006453784800804
393,0.08859279752,-0.42877379060000004,1.588385582,-0.605861485,0.05617500067000001,-0.4536000013,-0.516425004,1.068199974,-12.17159984,-0.37239998799999996,0.9335073950523333,-0.3585581450512692,-0.9570806111658899,-0.2898218482625603
394,0.09703020751000001,-0.4283902943,1.616047025,-0.4174452126,0.05617500067000001,-0.4536000013,-0.516425004,1.068199974,-12.17159984,-0.37239998799999996,0.9419936487669394,-0.3356306983616785,-0.9476531711828025,-0.31930153013598
395,0.1035500243,-0.4295408428,1.551170945,-0.3514508903,0.08382499933,-0.4472999907,-0.45027499200000004,1.391600046,-12.50480022,-0.6272000298,0.9499168876539661,-0.31250265046844394,-0.937317947438786,-0.34847534404766867
396,0.108152248,-0.4306913912,1.386108279,-0.2933936119,0.08382499933,-0.4472999907,-0.45027499200000004,1.391600046,-12.50480022,-0.6272000298,0.9572723761178167,-0.28918782464299775,-0.926084840336821,-0.37731534357659596
397,0.1158226207,-0.43260899189999996,1.421560287,-0.3101601899,0.065625,-0.4611250067,-0.30625,1.332800072,-12.23040025,-0.8917999819,0.964055717898415,-0.2657001557910186,-0.9139646103877378,-0.4057939020719639
398,0.120808363,-0.43107491729999997,1.322347641,-0.1504840702,0.065625,-0.4611250067,-0.30625,1.332800072,-12.23040025,-0.8917999819,0.9702628586987844,-0.24205368212374467,-0.9009688679024191,-0.433883739117558
399,0.1261776239,-0.4283902943,1.262504101,0.032358489930000005,0.0465500015,-0.42052501200000003,-0.1513749933,1.058400027,-11.83839946,-0.7153999895,0.9758900886082343,-0.2182625367675648,-0.8871100618699557,-0.4615579466644286
400,0.1300128102,-0.42647269369999996,1.132957935,0.12823188300000002,0.0465500015,-0.42052501200000003,-0.1513749933,1.058400027,-11.83839946,-0.7153999895,0.9809340443197179,-0.19434093931686597,-0.8724014680324058,-0.48879001480687306
401,0.1349985451,-0.42263749240000004,1.1111882929999999,0.3083594739,0.03359999925,-0.3885000134,-0.007349999771,1.1172000009999998,-11.50520024,-0.3136000149,0.9853917111400265,-0.1703031873352067,-0.8568571761675892,-0.5155538571770218
402,0.1388337314,-0.4168847203,1.036927223,0.5390629172,0.03359999925,-0.3885000134,-0.007349999771,1.1172000009999998,-11.50520024,-0.3136000149,0.9892604247916259,-0.146163647809884,-0.8404920765920894,-0.5418238359337076
403,0.1399842948,-0.4069132507,0.7494077681999999,0.8526811004000001,0.065625,-0.345800004,0.1163750017,0.7839999825,-10.60360017,0.19599999559999998,0.9925378730050517,-0.12193674856501568,-0.8233218458973981,-0.5675747863216802
404,0.1430524439,-0.4023110271,0.7977777123,0.9665243029999999,0.065625,-0.345800004,0.1163750017,0.7839999825,-10.60360017,0.19599999559999998,0.9952220969009173,-0.09763696963825275,-0.8053629319328658,-0.5927820407776354
405,0.1445865184,-0.39118897909999994,0.6657755971,1.290958285,0.111650002,-0.333025012,0.144199996,1.107399981,-9.094399738,-0.02940000026,0.9973114921607056,-0.07327883462628881,-0.7866325380498417,-0.6174214525599708
406,0.1445865184,-0.3819845319,0.47090911869999996,1.436357141,0.111650002,-0.333025012,0.144199996,1.107399981,-9.094399738,-0.02940000026,0.9988048099856441,-0.048876902004334276,-0.7671486066220965,-0.6414694188796344
407,0.14497002960000002,-0.3693284094,0.3652015924,1.7366211409999999,0.1809500027,-0.3351249933,0.133525002,1.362199986,-9.349199963,-0.1274000026,0.9997011578430937,-0.024445756424744884,-0.7469298018583168,-0.6649029035099002
408,0.1453535557,-0.35897341369999997,0.3015502095,1.826601863,0.1809500027,-0.3351249933,0.133525002,1.362199986,-9.349199963,-0.1274000026,1.0,-2.4492935982947064e-16,-0.7259954919231307,-0.6876994588534234
409,0.1430524439,-0.3478513658,0.1134333089,1.923358083,0.22470000269999998,-0.33949999329999997,0.223125,0.9309999883,-9.055200243,-0.01960000093,1.0,0.0,-0.7043657303837966,-0.7098372474454273
410,0.143435955,-0.3351952732,0.10327311609999999,2.07201457,0.22470000269999998,-0.33949999329999997,0.223125,0.9309999883,-9.055200243,-0.01960000093,0.9997312356234385,0.02318310848080872,-0.6820612370003221,-0.7312950628724294
411,0.1445865184,-0.3217720985,0.136446178,2.232320309,0.249199996,-0.340549984,0.3116749907,0.39199999119999995,-8.653400159,-0.6761999831000001,0.9989250869623341,0.04635375537422223,-0.6591033778774229,-0.7520523500864624
412,0.1442029923,-0.3087324798,0.08001582325,2.333796501,0.249199996,-0.340549984,0.3116749907,0.39199999119999995,-8.653400159,-0.6761999831000001,0.9975819873447715,0.06949948579130687,-0.6355141449973254,-0.7720892250953373
413,0.143435955,-0.2964598835,0.01878767833,2.374428511,0.2630249953,-0.333025012,0.221025002,-0.4018000111,-8.379000187,-1.028999968,0.9957026587254135,0.09260785823645142,-0.6113161351530261,-0.7913864940100804
414,0.1442029923,-0.2857213616,0.049613542850000004,2.188613653,0.2630249953,-0.333025012,0.221025002,-0.4018000111,-8.379000187,-1.028999968,0.9932881112974296,0.11566645129502871,-0.5865325283021829,-0.8099256714313042
415,0.1442029923,-0.278434515,0.0377738066,1.991951227,0.21822500469999997,-0.2700250053,0.1195249987,-1.7933999840000001,-8.604400206000001,-0.7350000292000001,0.9903396429494878,0.13866287031026323,-0.5611870653623826,-0.8276889981568905
416,0.14497002960000002,-0.27038061620000003,0.06852658837999999,1.885743022,0.21822500469999997,-0.2700250053,0.1195249987,-1.7933999840000001,-8.604400206000001,-0.7350000292000001,0.9868588385681032,0.16158475404571543,-0.5353040254690397,-0.8446594581940355
417,0.1438194811,-0.26079264280000003,-0.004032799974,1.896481156,0.12110000130000001,-0.23275000329999998,-0.001049999977,-3.488800061,-9.574599981,-0.5292000137,0.9828475691857146,0.18441978132980172,-0.508908202717729,-0.8608207950593496
418,0.1445865184,-0.2538893223,0.034122660760000006,1.7693339590000001,0.12110000130000001,-0.23275000329999998,-0.001049999977,-3.488800061,-9.574599981,-0.5292000137,0.9783079909749516,0.20715567767877857,-0.48202488241322233,-0.8761575273514
419,0.1430524439,-0.2477530241,-0.05691671744,1.624070406,-0.0378000015,-0.1197000027,-0.2422000027,-4.782400054,-11.10340016,0.18619999399999998,0.9732425440896295,0.2297802218946304,-0.4546798168479761,-0.8906549635807858
420,0.1442029923,-0.2435343117,0.01610083506,1.421424508,-0.0378000015,-0.1197000027,-0.2422000027,-4.782400054,-11.10340016,0.18619999399999998,0.9676539513530966,0.2522812526343149,-0.4268992006332839,-0.9042992162435303
421,0.1445865184,-0.2423837632,0.04420879483,1.104968905,-0.2992500067,-0.002274999917,-0.4576249933,-4.537399995,-14.35700033,2.881199998,0.9615452167946382,0.2746466749468345,-0.3987096456067232,-0.9170772151243106
422,0.1426689178,-0.2435343117,-0.0604897514,0.7552854419,-0.5563250160000001,0.08837500334,-0.4385499907,-2.381400007,-16.43460045,4.36099993,0.9549196240347249,0.2968644667746205,-0.37013815533991445,-0.9289767198167914
423,0.1430524439,-0.24852006140000002,-0.02620700002,0.2339045554,-0.5563250160000001,0.08837500334,-0.4385499907,-2.381400007,-16.43460045,4.36099993,0.9477807345199714,0.3189226854157347,-0.34121209927104207,-0.9399863314490527
424,0.1419018805,-0.2496706098,-0.08987751603000001,0.1390485317,-0.5563250160000001,0.08837500334,-0.4385499907,-2.381400007,-16.43460045,4.36099993,0.9401323856087572,0.34080947394341465,-0.31195918648689763,-0.950095503602892
425,0.1426689178,-0.2527387738,-0.033626187589999995,-0.055078327659999995,-0.5841500186999999,0.18235000129999998,-0.24849999670000003,-0.9309999883,-13.75920043,3.7828000719999997,0.9319786885085363,0.3625130675795133,-0.2824074391795574,-0.9592945524165373
426,0.14036780599999998,-0.2569574714,-0.16332910949999999,-0.2748499513,-0.5841500186999999,0.18235000129999998,-0.24849999670000003,-0.9309999883,-13.75920043,3.7828000719999997,0.923324026065944,0.38402180001840514,-0.2525851658031348,-0.9675746658610915
427,0.1353820711,-0.258875072,-0.3708835542,-0.2804104388,-0.43907500270000005,0.266699996,-0.20370000600000002,0.8428000286,-10.77019978,0.6272000298,0.914173050410892,0.405324109697961,-0.2225209339563146,-0.9749279121818235
428,0.131930396,-0.2611761689,-0.4755411744,-0.34419688579999996,-0.43907500270000005,0.266699996,-0.20370000600000002,0.8428000286,-10.77019978,0.6272000298,0.9045306804559139,0.4264085460142202,-0.19224354301663746,-0.9813472474962215
429,0.13039632140000001,-0.2592585683,-0.43264561890000003,-0.1593206674,-0.1958249927,0.2964500093,-0.20474999670000002,0.5193999939,-8.447599888,-0.9701999947,0.8944020992521089,0.4472637754764193,-0.16178199655276476,-0.9868265225415261
430,0.1300128102,-0.2573409975,-0.3399822116,-0.02023672126,-0.1958249927,0.2964500093,-0.20474999670000002,0.5193999939,-8.447599888,-0.9701999947,0.8837927512031022,0.46787858779906955,-0.13116547454114275,-0.9913604885652831
431,0.1265611351,-0.2581080198,-0.4057092965,-0.062294408679999996,-0.011199999750000002,0.371174984,-0.3862249947,1.6953999309999999,-5.781999742999999,-3.1458000960000003,0.872708339138522,0.4882419019278072,-0.10042330541367217,-0.9949448023532724
432,0.12426003070000001,-0.2561904192,-0.44728708270000006,0.05264651775,-0.011199999750000002,0.371174984,-0.3862249947,1.6953999309999999,-5.781999742999999,-3.1458000960000003,0.8611548212485647,0.508342771995779,-0.06958493796318148,-0.997576030389995
433,0.1181237325,-0.2512046993,-0.6593494415,0.3083739877,0.09992500067,0.354199996,-0.490700016,0.882000035,-8.516200173,-3.684799874,0.8491384078812957,0.5281703932073609,-0.03867991313358933,-0.999251652147735
434,0.1108368784,-0.24852006140000002,-0.8681176305,0.38140153880000005,0.09992500067,0.354199996,-0.490700016,0.882000035,-8.516200173,-3.684799874,0.8366655582044094,0.5477141076460457,-0.007737835721802129,-0.9999700625010443
435,0.09703020751000001,-0.2404661626,-1.304853201,0.6981242895,0.1734249973,0.306074996,-0.3648750067,-1.4504000190000002,-11.36799967,-4.243399984,0.8237429767332405,0.5669634100033794,0.023211653981555183,-0.9997305732643373
436,0.08552464843,-0.2308782041,-1.566448927,1.02071774,0.1734249973,0.306074996,-0.3648750067,-1.4504000190000002,-11.36799967,-4.243399984,0.8103776097268942,0.5859079532258676,0.0541389085854167,-0.9985334138511239
437,0.07593668252,-0.219372645,-1.7468532319999999,1.36064887,0.1244250023,0.135449996,-0.3606750107,-2.96940003,-12.65180008,-3.8611999389999996,0.7965766414544326,0.6045375540768135,0.08501430199834686,-0.9963797310542472
438,0.06136297807,-0.2078670859,-2.049336672,1.6026719809999999,0.1244250023,0.135449996,-0.3606750107,-2.96940003,-12.65180008,-3.8611999389999996,0.7823474903331231,0.6228421986101005,0.11580825780820912,-0.9932715879473385
439,0.04525519535,-0.1955944896,-2.232806683,1.822541714,-0.07944999932999999,-0.1494499993,-0.4000500107,-2.695000058,-14.36679962,-3.871000105,0.767697804940826,0.640812047552976,0.14649127761424902,-0.9892119619085411
440,0.02838037722,-0.1844724566,-2.525435448,1.92169106,-0.07944999932999999,-0.1494499993,-0.4000500107,-2.695000058,-14.36679962,-3.871000105,0.7526354599046636,0.6584374415949442,0.17703396928444873,-0.9842047417683949
441,0.011505558159999998,-0.1741174459,-2.755841255,1.9586870669999998,-0.29610000129999997,-0.4088000107,-0.3211250067,-2.518599993,-15.40560026,-2.048200062,0.7371685516681824,0.6757089065799223,0.20740707511107506,-0.9782547240846163
442,-0.005752779078,-0.1675976366,-2.94097805,1.7880728240000001,-0.29610000129999997,-0.4088000107,-0.3211250067,-2.518599993,-15.40560026,-2.048200062,0.7213053941392815,0.6926171585988724,0.2375814998374708,-0.9713676085473397
443,-0.02876389585,-0.1560920775,-3.212424755,1.741125941,-0.463574996,-0.5699749947,-0.06492500067000001,-2.42059994,-14.6608005,-0.1469999967,0.7050545142212482,0.7091531089801693,0.267528338529221,-0.9635499925192229
444,-0.04448815808,-0.151873365,-3.3696606160000004,1.689063191,-0.463574996,-0.5699749947,-0.06492500067000001,-2.42059994,-14.6608005,-0.1469999967,0.6884246472293015,0.7253078691750227,0.297218904263004,-0.9548093647156479
445,-0.06596519798,-0.1415183693,-3.6177160739999996,1.7089453940000001,-0.5190499973,-0.5998999786,0.09939999699999999,-2.273599935,-11.88740058,1.538600051,0.6714247321951106,0.741072755535328,0.3266247556066125,-0.9451540980310674
446,-0.08744224161,-0.1369161457,-3.806048393,1.5040085319999998,-0.5190499973,-0.5998999786,0.09939999699999999,-2.273599935,-11.88740058,1.538600051,0.654063907061807,0.7564392939813769,0.3557177238637984,-0.9345934415183741
447,-0.10930280390000001,-0.131930396,-3.9594769480000003,1.450224161,-0.49017500399999997,-0.5923749733,0.13125,-1.528800032,-11.11319945,2.381400007,0.6363515037720774,0.7713992245569189,0.38446994005786916,-0.9231375115289696
448,-0.1326974332,-0.1280952096,-4.162995815,1.1943145990000001,-0.49017500399999997,-0.5923749733,0.13125,-1.528800032,-11.11319945,2.381400007,0.6182970432519773,0.7859445058691247,0.4128538616281658,-0.9107972820220267
449,-0.1541744769,-0.1246435493,-4.205798626,1.064837933,-0.39847500799999996,-0.572074976,0.285075016,-2.3715999869999997,-10.53500047,2.4010000469999997,0.5999102302931584,0.8000673194110666,0.440842298813858,-0.8975845740522244
450,-0.1760350466,-0.12157540019999999,-4.252530098,0.953542769,-0.39847500799999996,-0.572074976,0.285075016,-2.3715999869999997,-10.53500047,2.4010000469999997,0.5812009483362641,0.8137600737643911,0.4684084406997896,-0.8835120444460232
451,-0.19904614980000002,-0.1188907698,-4.35128212,0.8480719328,-0.25129999399999997,-0.481425004,0.3960249853,-2.302999994,-9.065000117,2.155999988,0.5621792541582968,0.8270154086799236,0.49552588089940913,-0.8685931736773347
452,-0.2216737568,-0.1158226207,-4.415541172,0.801210165,-0.25129999399999997,-0.481425004,0.3960249853,-2.302999994,-9.065000117,2.155999988,0.5428553724668101,0.8398261990340149,0.5221686428501924,-0.8528422529541957
453,-0.2412331998,-0.1142885461,-4.288098812,0.6800480484999999,-0.09117500066999999,-0.37362500670000004,0.3533250093,-2.0089999819999997,-8.251600075,1.538600051,0.5232396904038351,0.8521855586584994,0.5483112046973309,-0.8362743705288126
454,-0.2611761689,-0.1131379902,-4.208384514,0.5630568266,-0.09117500066999999,-0.37362500670000004,0.3533250093,-2.0089999819999997,-8.251600075,1.538600051,0.503342751962493,0.8640868440422087,0.5739285237418318,-0.8189053972441027
455,-0.281119138,-0.1131379902,-4.146799564,0.42163732649999996,0.022924998999999998,-0.2913749933,0.2744000053,-1.646399978,-8.202600121,1.293599993,0.48317525231929476,0.87552365790205,0.5989960604296332,-0.8007519713305609
456,-0.2987609804,-0.1116039157,-3.981328487,0.40270370240000003,0.022924998999999998,-0.2913749933,0.2744000053,-1.646399978,-8.202600121,1.293599993,0.4627480320851776,0.8864898526217293,0.6234898018587334,-0.7818314824680299
457,-0.3164028525,-0.1116039157,-3.8615531919999997,0.3019898236,0.107275002,-0.2220749927,0.225224998,-1.362199986,-8.819999766,1.303400013,0.4420720714783634,0.8969795335562728,0.6473862847818278,-0.7621620551276362
458,-0.3332776725,-0.1112203971,-3.7319116589999997,0.2393258065,0.107275002,-0.2220749927,0.225224998,-1.362199986,-8.819999766,1.303400013,0.4211584844221769,0.9069870622005669,0.6706626180824183,-0.741762531209845
459,-0.3478513658,-0.1112203971,-3.5108275410000003,0.17743094269999998,0.1874250007,-0.18584999800000002,0.13772499800000002,-0.8428000286,-9.22179985,1.058400027,0.4000185125709918,0.9165070592202175,0.6932965047028624,-0.7206524519952693
460,-0.362808615,-0.1104533598,-3.3672027589999995,0.1749047786,0.1874250007,-0.18584999800000002,0.13772499800000002,-0.8428000286,-9.22179985,1.058400027,0.3786635192675184,0.9255344073430969,0.7152662630033503,-0.6988520394255296
461,-0.37814936039999997,-0.1108368784,-3.28145504,0.1123945192,0.2353749967,-0.168700006,0.09817500234,-0.6664000362,-9.829400206,1.21519998,0.35710498343468,0.9340642541100248,0.7365508475313659,-0.67638217673208
462,-0.39157250520000003,-0.1108368784,-3.1263980869999997,0.0804881677,0.2726499987,-0.14629999400000002,0.08540000199999999,-0.48019998740000003,-9.986200522999999,1.362199986,0.3353544934053617,0.9420920144831041,0.7571298691817177,-0.6532643884315715
463,-0.40959787369999995,-0.1116039157,-2.918588638,0.00407075882,0.2726499987,-0.14629999400000002,0.08540000199999999,-0.48019998740000003,-9.986200522999999,1.362199986,0.313423740693349,0.9496133733103111,0.7769836147278381,-0.6295208197069121
464,-0.4172682464,-0.1108368784,-2.860610962,0.04626821727,0.2726499987,-0.14629999400000002,0.08540000199999999,-0.48019998740000003,-9.986200522999999,1.362199986,0.29132451370880225,0.9566242876450137,0.7960930657056435,-0.6051742151937656
465,-0.4295408428,-0.1100698411,-2.740509987,0.07849875837999999,0.2652999973,-0.1259999967,0.05774999917,-0.5488000169,-9.966599607000001,1.362199986,0.2690686914216474,0.9631209889191712,0.814439916631857,-0.5802478971928238
466,-0.4402793646,-0.1112203971,-2.583024979,-0.001816928387,0.2652999973,-0.1259999967,0.05774999917,-0.5488000169,-9.966599607000001,1.362199986,0.24666823697628848,0.9690999849690483,0.8320065925393467,-0.5547657433287184
467,-0.4502508342,-0.1108368784,-2.424382687,0.008245738223,0.240625,-0.10360000130000001,0.048125,-0.5586000003,-10.05480022,1.303400013,0.2241351912610724,0.9745580619123534,0.8487762658126872,-0.5287521636769638
468,-0.45983880759999995,-0.1104533598,-2.284967184,0.02608106099,0.240625,-0.10360000130000001,0.048125,-0.5586000003,-10.05480022,1.303400013,0.201481666435967,0.9794922858757927,0.8647328723078038,-0.5022320773808614
469,-0.4701938033,-0.1104533598,-2.233973026,0.013056412340000002,0.2129750013,-0.08872500300000001,0.032025000750000004,-0.4115999945,-10.329200199999999,1.293599993,0.17871983942192485,0.9839000045721117,0.8798611267402743,-0.4752308887807431
470,-0.4786312282,-0.1104533598,-2.10396266,-0.0004099532962,0.2129750013,-0.08872500300000001,0.032025000750000004,-0.4115999945,-10.329200199999999,1.293599993,0.1558619453554399,0.9877788487257751,0.8941465373275327,-0.44777446307843766
471,-0.4874521494,-0.1089192852,-2.0123448369999997,0.07909429818,0.19372499469999999,-0.07262500167000001,0.05774999917,-0.6272000298,-10.75060003,1.077999994,0.13292027101180895,0.9911267333465218,0.9075754196709569,-0.41988910156026493
472,-0.49704012270000003,-0.10930280390000001,-1.9836525919999999,0.03788086027,0.19372499469999999,-0.07262500167000001,0.05774999917,-0.6272000298,-10.75060003,1.077999994,0.10990714820063599,0.9939418588501057,0.9201349098645429,-0.3916015164022855
473,-0.5054775476,-0.10776872929999999,-1.8999193909999998,0.1059923247,0.1819999933,-0.054599998,0.12057499769999999,-0.7153999895,-11.28959951,0.9603999749,0.08683494713713144,0.9962227120256251,0.9318129768176031,-0.36293880508195475
474,-0.5142984389999999,-0.10776872929999999,-1.848066807,0.08045703918,0.1819999933,-0.054599998,0.12057499769999999,-0.7153999895,-11.28959951,0.9603999749,0.06371606979276499,0.9979680668489165,0.9425984337796869,-0.3339284244206853
475,-0.5246534347999999,-0.10585113609999999,-1.899047613,0.156257242,0.17552499530000001,-0.058799998160000005,0.19967499730000002,-0.882000035,-11.43660054,0.8917999819,0.04056294322884872,0.999176985141578,0.9524809490566877,-0.3045981642821761
476,-0.5334743857,-0.10278298710000001,-1.869713545,0.2858143151,0.17552499530000001,-0.058799998160000005,0.19967499730000002,-0.882000035,-11.43660054,0.8917999819,0.01738801291663586,0.9998488170752671,0.9614510559078625,-0.2749761209517224
477,-0.5419117808,-0.09779724479,-1.8168023819999999,0.4814788699,0.16169999599999998,-0.048125,0.2625,-0.7742000356000001,-10.67219987,1.146599987,-0.005796263952479592,0.9999832015210022,0.9695001616142914,-0.24509067022198686
478,-0.5511162281,-0.09357853979,-1.8195689919999998,0.5787830949,0.16169999599999998,-0.048125,0.2625,-0.7742000356000001,-10.67219987,1.146599987,-0.028977425163059893,0.9995800662432797,0.9766205557100867,-0.2149704402110244
479,-0.5599371791,-0.08974335343,-1.799810648,0.62696141,0.1457749987,-0.03324999958,0.1931999993,-0.5683999836,-10.28999953,0.01960000093,-0.05214301017442358,0.9986396279389027,0.9828054173684645,-0.18464428393860008
480,-0.5679910779,-0.08437409252,-1.750008583,0.7368379235,0.1457749987,-0.03324999958,0.1931999993,-0.5683999836,-10.28999953,0.01960000093,-0.0752805668185439,0.9971623921205005,0.9880488219356085,-0.15414125168706855
481,-0.5756614207999999,-0.08168946207000001,-1.68802166,0.6804041862000001,0.109375,-0.07490000367,0.25620000600000004,-1.460200039,-11.15240011,0.2939999934,-0.09837765799344808,0.9951491528448005,0.9923457466060636,-0.12349056317328133
482,-0.5825647711999999,-0.07938835025,-1.596283197,0.6170688868,0.08697499633,-0.050224998,0.3927000093,-1.1662000270000001,-10.62319992,0.03920000186,-0.12142186834851589,0.9926009922858005,0.9956920752342223,-0.09272157955820096
483,-0.5944538116,-0.07632020116,-1.614697695,0.5162192582999999,0.08697499633,-0.050224998,0.3927000093,-1.1662000270000001,-10.62319992,0.03920000186,-0.144400810958088,0.9895192801530683,0.9980846022772978,-0.06186377532100884
484,-0.5975219607,-0.07708723843,-1.514558315,0.3847063482,0.08697499633,-0.050224998,0.3927000093,-1.1662000270000001,-10.62319992,0.03920000186,-0.16730213397979626,0.9859056729554843,0.9995210358660036,-0.030946710024671108
485,-0.604808867,-0.07440260798,-1.488631368,0.45009881259999995,0.049699998499999995,-0.047075001,0.47705000399999997,-1.2054000329999999,-9.94699986,0.9800000146,-0.19011352729403155,0.9817621131108195,1.0,-2.4492935982947064e-16
486,-0.6136297584,-0.07708723843,-1.5757918359999998,0.17618747059999998,0.049699998499999995,-0.047075001,0.47705000399999997,-1.2054000329999999,-9.94699986,0.9800000146,-0.21282272912098868,0.9770908279016308,1.0,0.0
487,-0.6189990044,-0.07900483161,-1.468557,0.029039340089999997,0.039025000330000004,0.003150000125,0.5048750067000001,-1.009400001,-10.89759989,0.5879999869,-0.23541753261172513,0.9718943282780321,0.9998272238333606,0.018588235033887943
488,-0.6239847541,-0.07977186888,-1.34481883,-0.022433726119999997,0.039025000330000004,0.003150000125,0.5048750067000001,-1.009400001,-10.89759989,0.5879999869,-0.2578857924096933,0.9661754075079869,0.9993089550366498,0.03717004685978839
489,-0.6285870075,-0.08015538752000001,-1.2380263809999998,-0.04025379196000001,0.029399999080000003,-0.009800000042,0.6082999706000001,-1.352399966,-10.29979999,0.8231999889,-0.28021543117921954,0.9599371396758457,0.9984453726988598,0.05573901448926836
490,-0.6358738542,-0.07938835025,-1.295859575,-0.005447946489000001,0.029399999080000003,-0.009800000042,0.6082999706000001,-1.352399966,-10.29979999,0.8231999889,-0.30239444609741817,0.953182878029938,0.9972367752328822,0.0742887213722369
491,-0.640476048,-0.07747075707000001,-1.206399322,0.09566550702,0.0442749995,0.0126000005,0.628599968,-1.068199974,-9.702000092999999,0.6664000362,-0.3244109153060547,0.9459162531801046,0.9956835802723916,0.09281275761419894
492,-0.6450783014,-0.07862131298,-1.134429574,0.0173981078,0.0442749995,0.0126000005,0.628599968,-1.068199974,-9.702000092999999,0.6664000362,-0.3462530043198873,0.9381411711461405,0.9937863245275302,0.11130472219120939
493,-0.6492969989999999,-0.07862131298,-1.054210305,0.01661660708,0.050750001669999996,0.02222499967,0.6455749893,-0.9016000018000001,-9.604000187,0.4214000143,-0.36790897238804227,0.929861811258197,0.991545663599448,0.1297582251617617
494,-0.6531322002000001,-0.08092242478999999,-0.9633309841,-0.1092147753,0.050750001669999996,0.02222499967,0.6455749893,-0.9016000018000001,-9.604000187,0.4214000143,-0.38936717880500715,0.921082623910271,0.9889623717537563,0.14816688987484725
495,-0.6585014462,-0.08168946207000001,-0.9901486039,-0.13077980279999998,0.0465500015,0.033950001,0.6713000106999999,-0.9603999749,-9.50600028,0.3626000047,-0.4106160891678417,0.9118083281679912,0.9860373416529802,0.16652435517342187
496,-0.6631036996999999,-0.08322353661000001,-0.9753444195000001,-0.17099799219999998,0.0465500015,0.033950001,0.6713000106999999,-0.9603999749,-9.50600028,0.3626000047,-0.43164428157625406,0.9020439092319839,0.982771584048096,0.18482427759251854
497,-0.6657882929,-0.08475761116000001,-0.8603683114,-0.19798153640000002,0.02835000008,0.039375,0.691600008,-0.950600028,-9.329600215,0.3233999982,-0.4524404527721978,0.8917946157581849,0.9791662274292636,0.2030603335512466
498,-0.668856442,-0.08705872297,-0.8003801106999999,-0.269454509,0.02835000008,0.039375,0.691600008,-0.950600028,-9.329600215,0.3233999982,-0.47299342421570006,0.8810659570365359,0.9752225176358754,0.22122622153791963
499,-0.6730751395,-0.08744224161,-0.8165940046,-0.20998340850000002,0.004900000021,0.03289999992,0.690549984,-0.8428000286,-8.751400065,0.2057999972,-0.4932921480936486,0.8698637000295816,0.970941817426052,0.23931566428755777
500,-0.6765268445,-0.08782576025000001,-0.7943486570999999,-0.1737171412,0.004900000021,0.03289999992,0.690549984,-0.8428000286,-8.751400065,0.2057999972,-0.513325713258307,0.8581938662725633,0.9663256060057391,0.25732241095101116
501,-0.6788279414,-0.08782576025000001,-0.71787709,-0.1220840588,-0.01224999979,0.02117500067,0.661675024,-0.46059998420000003,-8.565200126,-0.2254000004,-0.5330833510923717,0.8460627286366698,0.9613754785175639,0.2752402392549555
502,-0.6799784899,-0.08820927888,-0.5920012593,-0.1039294675,-0.01224999979,0.02117500067,0.661675024,-0.46059998420000003,-8.565200126,-0.2254000004,-0.552554441297413,0.8334768079571883,0.9560931454896298,0.29306295765201307
503,-0.6845807433,-0.09012687206,-0.6168555617,-0.1565899849,-0.047425000669999995,-0.01400000021,0.6231750107,-0.39199999119999995,-8.075200009,0.09799999780999999,-0.5717285176025908,0.8204428695283688,0.9504804322444399,0.31078440746025643
504,-0.6849642396,-0.09089390934000001,-0.52716434,-0.17443272469999999,-0.047425000669999995,-0.01400000021,0.6231750107,-0.39199999119999995,-8.075200009,0.09799999780999999,-0.5905952733905772,0.8069679194668828,0.9445392782681521,0.3283984649913552
505,-0.6872653365000001,-0.09127742797,-0.5058689117,-0.14374493060000001,-0.07735000134,-0.02887499958,0.5400500107,-0.1666000091,-8.379000187,-0.2646000069,-0.6091445672376574,0.7930592009458355,0.9382717365403852,0.345899043666631
506,-0.688415885,-0.09281150252,-0.4335920215,-0.1951173693,-0.07735000134,-0.02887499958,0.5400500107,-0.1666000091,-8.379000187,-0.2646000069,-0.6273664283650389,0.7787241903013509,0.9316799728248073,0.3632800961202889
507,-0.6880323887,-0.09166094661,-0.3046059906,-0.08387842774,-0.12634999630000002,-0.05985000133999999,0.5111749839999999,-0.2548000053,-8.163400042000001,-0.3332000181,-0.6452510619984299,0.763970593013827,0.9247662649207505,0.3805356162890987
508,-0.6907169819,-0.09281150252,-0.37476360799999997,-0.12110352519999999,-0.12634999630000002,-0.05985000133999999,0.5111749839999999,-0.2548000053,-8.163400042000001,-0.3332000181,-0.6627888546330136,0.7488063395660176,0.917533001876113,0.39765964148780414
509,-0.6880323887,-0.09396205842000001,-0.1446793079,-0.1475890726,-0.161524992,-0.0694750005,0.41195001600000003,0.09799999780999999,-8.310399902,-0.2548000053,-0.6799703792009826,0.7332395811801706,0.9099826831618167,0.41464625446954256
510,-0.6887994409,-0.09319502115,-0.1428792775,-0.06875491887,-0.161524992,-0.0694750005,0.41195001600000003,0.09799999780999999,-8.310399902,-0.2548000053,-0.696786400138859,0.7172786854365114,0.9021179178081106,0.4314895854705638
511,-0.6880323887,-0.09511261433,-0.06127345562000001,-0.1506779194,-0.1893499947,-0.0694750005,0.37257501600000004,0.1666000091,-9.065000117,0.08819999619999999,-0.7132278783518754,0.7009322317754281,0.8939414235030133,0.44818381423854015
512,-0.6872653365000001,-0.09626317024,0.008409425616000001,-0.17867793140000002,-0.1893499947,-0.0694750005,0.37257501600000004,0.1666000091,-9.065000117,0.08819999619999999,-0.729285976072749,0.6842090068857745,0.8854560256532099,0.46472317204376856
513,-0.6891829370999999,-0.09933131933,-0.08731134236,-0.3001927435,-0.205274992,-0.06737499832999999,0.368200016,0.2155999988,-9.564800107,0.37239998799999996,-0.7449520616122338,0.6671179999817742,0.8766646564077263,0.4811019436725684
514,-0.6891829370999999,-0.1023994684,-0.05598118156,-0.3850418031,-0.205274992,-0.06737499832999999,0.368200016,0.2155999988,-9.564800107,0.37239998799999996,-0.7602177139989041,0.6496683979710576,0.8675703536447179,0.4973144694021874
515,-0.6887994409,-0.1054676175,-0.02313653752,-0.4454569221,-0.223475008,-0.053549999,0.40985000130000004,-0.048999998899999994,-10.31939974,0.950600028,-0.7750747275056664,0.6318695805164362,0.858176259921724,0.5133551469565311
516,-0.6895664334,-0.10585113609999999,-0.05721568316,-0.35558509829999996,-0.223475008,-0.053549999,0.40985000130000004,-0.048999998899999994,-10.31939974,0.950600028,-0.7895151160605755,0.6137311149940632,0.8484856213897497,0.5292184334420432
517,-0.6895664334,-0.1070016921,-0.04505096376,-0.3253763914,-0.1851499987,-0.009800000042,0.3885000134,0.4704000041,-9.682399762000001,1.1857999940000001,-0.8035311175395766,0.5952627513506947,0.8385017866715506,0.5448988472630654
518,-0.6899499893000001,-0.10776872929999999,-0.0567965284,-0.2781353295,-0.1851499987,-0.009800000042,0.3885000134,0.4704000041,-9.682399762000001,1.1857999940000001,-0.8171151979388712,0.5764744168628122,0.8282282057045087,0.5603909700160147
519,-0.6899499893000001,-0.1089192852,-0.05413107574,-0.2708697915,-0.1583750033,0.01050000042,0.34475001340000005,0.48019998740000003,-9.8,1.313200033,-0.8302600554246597,0.557376210800426,0.8176684285484984,0.5756894483617268
520,-0.688415885,-0.1089192852,0.0479940474,-0.1986110806,-0.1583750033,0.01050000042,0.34475001340000005,0.48019998740000003,-9.8,1.313200033,-0.842958624258088,0.5379783989984278,0.8068261041591547,0.5907889958753133
521,-0.6895664334,-0.1096863225,-0.030167702589999994,-0.1844402254,-0.1317750037,0.053199999330000004,0.32987500670000003,0.5782000035,-9.731399715,1.401400065,-0.8552040785932845,0.5182914083384088,0.7957049791269684,0.6056843948728998
522,-0.688415885,-0.10930280390000001,0.030564166610000002,-0.10975232720000001,-0.09327499866,0.10009999630000001,0.3052000093,0.6664000362,-9.711799967000001,1.4895999519999998,-0.8669898361464491,0.4983258211439113,0.7843088963826433,0.6203704982146073
523,-0.6880323887,-0.1104533598,0.03718104213,-0.13126359880000002,-0.09327499866,0.10009999630000001,0.3052000093,0.6664000362,-9.711799967000001,1.4895999519999998,-0.8783095617340192,0.47809236949212564,0.7726417938691619,0.6348422310831594
524,-0.6868818402,-0.1100698411,0.0949658528,-0.09320347756000001,-0.09327499866,0.10009999630000001,0.3052000093,0.6664000362,-9.711799967000001,1.4895999519999998,-0.8891571706780146,0.4576019294450889,0.7607077031810202,0.6490945927374968
525,-0.6849642396,-0.1089192852,0.17856715620000002,-0.008970845491,-0.062299999,0.1513749933,0.285075016,0.5978000067,-9.417800247999999,1.842399937,-0.899526832076725,0.43686551520349076,0.7485107481711012,0.6631226582407952
526,-0.6822795868000001,-0.1089192852,0.2765507102,-0.0029578953980000005,-0.062299999,0.1513749933,0.285075016,0.5978000067,-9.417800247999999,1.842399937,-0.9094129719389883,0.4158942731862233,0.7360551435256673,0.6769215801622883
527,-0.6799784899,-0.10930280390000001,0.3343713582,-0.02486499213,-0.050575001839999995,0.20684999469999998,0.2465750027,0.6075999901,-9.417800247999999,1.6267999380000002,-0.9188102761803715,0.3946994760388586,0.7233451933079662,0.6904865902523096
528,-0.6765268445,-0.1085357666,0.4070152044,0.017206728459999997,-0.050575001839999995,0.20684999469999998,0.2465750027,0.6075999901,-9.417800247999999,1.6267999380000002,-0.9277136934796428,0.37329251657428036,0.7103852894709517,0.7038130010899715
529,-0.6742256879999999,-0.1073852107,0.4423032105,0.06821580231,-0.03255000025,0.26442499399999997,0.2241750073,1.048600008,-9.270799804,1.420999959,-0.9361184379940027,0.35168490164871785,0.6971799103396336,0.7168962077029146
530,-0.6742256879999999,-0.10585113609999999,0.3270931542,0.1337824166,-0.03255000025,0.26442499399999997,0.2241750073,1.048600008,-9.270799804,1.420999959,-0.9440199919316123,0.32988824597647987,0.6837336190635822,0.7297316891585676
531,-0.6738421917,-0.10585113609999999,0.2614792287,0.10102748130000001,-0.019600000080000003,0.3349499893,0.19967499730000002,0.9603999749,-9.584399855,1.5091999919999999,-0.9514141079800358,0.3079142658867122,0.6700510620401225,0.742315010126364
532,-0.6711575389,-0.10585113609999999,0.3244239092,0.06943501532,-0.019600000080000003,0.3349499893,0.19967499730000002,0.9603999749,-9.584399855,1.5091999919999999,-0.9582968115892929,0.28577477302553367,0.6561369673087587,0.7546418224103836
533,-0.6696234941,-0.103933543,0.3343720436,0.1465080082,-0.015399999919999999,0.403200016,0.20387499329999997,1.2054000329999999,-9.751000047,1.440599999,-0.9646644031082945,0.2634816680069371,0.6419961429173909,0.7667078664518794
534,-0.6669388413,-0.103933543,0.3860864639,0.1056554541,-0.015399999919999999,0.403200016,0.20387499329999997,1.2054000329999999,-9.751000047,1.440599999,-0.9705134597735113,0.2410469340158656,0.6276334752608821,0.7785089728011796
535,-0.6615695953,-0.1020159498,0.56188941,0.18629418309999998,-0.0175,0.4480000067,0.214550004,0.8330000087999999,-9.594199729,1.195600013,-0.9758408375488069,0.21848263036690838,0.613053927392553,0.7900410635584496
536,-0.654666245,-0.10316650570000001,0.7732976079,0.07752637565,-0.0175,0.4480000067,0.214550004,0.8330000087999999,-9.594199729,1.195600013,-0.9806436728154483,0.195800886022071,0.5982625373091875,0.8013001537828213
537,-0.6473793983,-0.1023994684,0.9602472186,0.09500390291000001,-0.0409499985,0.485449996,0.12057499769999999,0.4115999945,-8.575,1.195600013,-0.9849193839113832,0.17301389307110976,0.5832644162101417,0.8122823528693964
538,-0.6381749511,-0.1020159498,1.199566483,0.08790823817,-0.0409499985,0.485449996,0.12057499769999999,0.4115999945,-8.575,1.195600013,-0.9886656725189574,0.15013390017793307,0.5680647467311558,0.8229838658936564
539,-0.6308881044,-0.1020159498,1.276712775,0.06363751739,-0.0432250005,0.5685750293999999,0.01295000017,0.37239998799999996,-8.702400112000001,1.225,-0.991880524900327,0.12717320599659265,0.5526687811534837,0.8334009949228058
540,-0.6224507093,-0.10163243109999999,1.388022661,0.06707391888,-0.0432250005,0.5685750293999999,0.01295000017,0.37239998799999996,-8.702400112000001,1.225,-0.9945622129798999,0.10414415256040181,0.5370818395889537,0.843530140293603
541,-0.6128627061999999,-0.1020159498,1.51973629,0.03199205175,-0.04637500166999999,0.626325016,-0.041474998,-0.5389999971,-8.927800131,1.5091999919999999,-0.9967092952732264,0.0810591186477401,0.5213093081415918,0.8533678018562305
542,-0.6028912663,-0.10163243109999999,1.646829128,0.04521588236000001,-0.04637500166999999,0.626325016,-0.041474998,-0.5389999971,-8.927800131,1.5091999919999999,-0.9983206176618384,0.057930513128102865,0.5053566370464417,0.8629105801837819
543,-0.5887010694,-0.1020159498,1.795952559,0.008529916406000001,-0.015399999919999999,0.652925024,-0.1055250037,-1.558199945,-9.790200126,1.391600046,-0.9993953140136218,0.03477076829197566,0.4892293387862222,0.8721551777469396
544,-0.5833318233,-0.1020159498,1.796204329,0.007551194634,-0.015399999919999999,0.652925024,-0.1055250037,-1.558199945,-9.790200126,1.391600046,-0.9999328066483864,0.011592333168123331,0.47293298618647683,0.8810984000534456
545,-0.5729768276,-0.1004818752,1.8610260490000001,0.09357768297,0.065625,0.6273749733,-0.141924994,-2.263800061,-10.94659984,0.6566000164,-0.9999328066483864,-0.01159233316812264,0.45647321048987005,0.8897371567519651
546,-0.5614712238,-0.10163243109999999,1.98419261,0.008813321590000001,0.065625,0.6273749733,-0.141924994,-2.263800061,-10.94659984,0.6566000164,-0.9993953140136218,-0.03477076829197541,0.43985569941029945,0.8980684626999639
547,-0.5538008809,-0.10163243109999999,1.872119069,0.006424001883999999,0.19057500600000002,0.5729500294,-0.181299994,-2.59699986,-11.64239964,-0.5586000003,-0.9983206176618385,-0.05793051312810217,0.4230861951674914,0.9060894389952326
548,-0.5503491759,-0.10163243109999999,1.563954115,0.000944359228,0.19057500600000002,0.5729500294,-0.181299994,-2.59699986,-11.64239964,-0.5586000003,-0.9967092952732265,-0.08105911864773942,0.40617049250276516,0.9137973139706973
549,-0.5449799299,-0.1020159498,1.436725855,-0.01945847645,0.3442250013,0.498224988,-0.19739999530000002,-1.9893999430000002,-11.75020001,-1.773799944,-0.9945622129798999,-0.10414415256040156,0.3891144366766456,0.9211894241521755
550,-0.5380765796,-0.1023994684,1.4214128259999999,-0.03813684732,0.3442250013,0.498224988,-0.19739999530000002,-1.9893999430000002,-11.75020001,-1.773799944,-0.9918805249003271,-0.127173205996592,0.37192392144902015,0.9282632151787461
551,-0.5350084305,-0.10278298710000001,1.216227889,-0.05056470633,0.446600008,0.41072498799999996,-0.2422000027,-1.077999994,-9.995999813,-2.087399995,-0.9886656725189575,-0.15013390017793285,0.3546048870425358,0.9350162426854147
552,-0.5327073336,-0.1020159498,1.006224513,0.0056089647109999995,0.446600008,0.41072498799999996,-0.2422000027,-1.077999994,-9.995999813,-2.087399995,-0.9849193839113832,-0.17301389307110954,0.3371633180899416,0.9414461731477699
553,-0.5296391845,-0.1012489125,0.8920373320999999,0.048439178619999995,0.5682250214,0.3360000134,-0.33705000399999996,-0.06860000212,-9.995999813,-2.0089999819999997,-0.9806436728154483,-0.19580088602207077,0.3196052415660856,0.9475507846883374
554,-0.5254204869,-0.1020159498,0.8861153126000001,-0.0061299726370000005,0.5682250214,0.3360000134,-0.33705000399999996,-0.06860000212,-9.995999813,-2.0089999819999997,-0.975840837548807,-0.2184826303669077,0.3019367247052781,0.9533279678443558
555,-0.5215852857,-0.1020159498,0.8497071862000001,-0.01195129007,0.581174984,0.30817501070000003,-0.26127500530000003,-0.7055999695999999,-9.69220022,-1.724799991,-0.9705134597735113,-0.24104693401586538,0.28416387290474615,0.9587757262967056
556,-0.5189006925,-0.1020159498,0.7589347363,-0.01237642672,0.581174984,0.30817501070000003,-0.26127500530000003,-0.7055999695999999,-9.69220022,-1.724799991,-0.9646644031082947,-0.2634816680069365,0.26629282761489836,0.9638921775597424
557,-0.5173665881,-0.1020159498,0.6493330002000001,-0.011270325630000001,0.4627000093,0.26337500329999997,-0.2112249947,-1.332800072,-9.329600215,-0.7350000292000001,-0.958296811589293,-0.28577477302553306,0.2483297642171331,0.9686755536317943
558,-0.5154489875,-0.1020159498,0.5777912736,-0.008235689253,0.4627000093,0.26337500329999997,-0.2112249947,-1.332800072,-9.329600215,-0.7350000292000001,-0.9514141079800358,-0.307914265886712,0.2302808898899198,0.9731242016060985
559,-0.5116138458,-0.1020159498,0.6327075362,-0.01320545841,0.3228750134,0.26337500329999997,-0.1013249993,-2.96940003,-11.31899972,-1.411199939,-0.9440199919316126,-0.32988824597647926,0.21215244146389572,0.9772365842419677
560,-0.5054775476,-0.1008653939,0.7748092413,0.047434717419999994,0.3228750134,0.26337500329999997,-0.1013249993,-2.96940003,-11.31899972,-1.411199939,-0.9361184379940028,-0.35168490164871763,0.1939506832667128,0.9810112804959866
561,-0.49588954450000006,-0.1012489125,1.077845335,0.023667685690000002,0.142450006,0.18987500670000002,-0.09817500234,-3.4692000210000002,-11.5836004,-1.528800032,-0.927713693479643,-0.37329251657427975,0.175681904958386,0.9844469860130572
562,-0.48783567549999995,-0.1008653939,1.226434708,0.03909135982,0.142450006,0.18987500670000002,-0.22084999800000002,-3.410399902,-12.88700056,-0.37239998799999996,-0.9188102761803716,-0.39469947603885835,0.15735241935788624,0.9875425135771219
563,-0.47786417600000003,-0.10163243109999999,1.2946579459999998,-0.011040256359999999,0.03255000025,0.1630999947,-0.22084999800000002,-3.410399902,-12.88700056,-0.37239998799999996,-0.9094129719389885,-0.4158942731862227,0.13896856026173005,0.9902967935214079
564,-0.4740290046,-0.1004818752,1.2867115740000001,0.05748178065,0.03255000025,0.1630999947,-0.22084999800000002,-3.410399902,-12.88700056,-0.37239998799999996,-0.8995268320767251,-0.43686551520349054,0.12053668025532323,0.992708874098054
565,-0.46942678090000006,-0.1020159498,1.184124351,-0.03582107648,-0.02712499917,0.174824996,-0.18987500670000002,-4.21400007,-13.75920043,0.2841999918,-0.8891571706780147,-0.45760192944508865,0.10206314851780827,0.994777921806989
566,-0.4640575051,-0.10316650570000001,1.15910387,-0.09130543470000001,-0.02712499917,0.174824996,-0.18987500670000002,-4.21400007,-13.75920043,0.2841999918,-0.8783095617340193,-0.4780923694921254,0.08355434862118144,0.9965032216839492
567,-0.46060585979999996,-0.1070016921,1.031734943,-0.27360308170000003,-0.056000000829999994,0.1513749933,-0.02765000075,-4.263000023,-13.26919973,0.1372000042,-0.8669898361464492,-0.49832582114391105,0.06501667632443275,0.9978841775475368
568,-0.45562011,-0.10930280390000001,1.027022481,-0.3262422979,-0.056000000829999994,0.1513749933,-0.02765000075,-4.263000023,-13.26919973,0.1372000042,-0.8552040785932846,-0.5182914083384086,0.04645653736347812,0.9989203122052308
569,-0.4521684349,-0.1116039157,0.9420034289,-0.35504183170000003,-0.09222499967,0.135449996,0.07367500067,-3.6456000860000004,-11.83839946,0.05880000051,-0.8429586242580882,-0.5379783989984276,0.02788034523764148,0.9996112676182827
570,-0.4479497373,-0.1127544716,0.9172279834999999,-0.32453233,-0.09222499967,0.135449996,0.07367500067,-3.6456000860000004,-11.83839946,0.05880000051,-0.8302600554246602,-0.5573762108004254,0.009294518993455571,0.9999568050254373
571,-0.44373103979999995,-0.11352150890000001,0.9144375323999999,-0.2812308073,-0.08470000267000001,0.126875,0.07909999967,-2.832200044,-10.47620006,-0.5096000104999999,-0.8171151979388713,-0.576474416862812,-0.00929451899345545,0.9999568050254373
572,-0.4391288161,-0.1142885461,0.9278284311,-0.25494089719999996,-0.08470000267000001,0.126875,0.07909999967,-2.832200044,-10.47620006,-0.5096000104999999,-0.803531117539577,-0.5952627513506943,-0.027880345237641133,0.9996112676182827
573,-0.43759474159999995,-0.11658965800000001,0.7585666179999999,-0.3098986447,-0.09117500066999999,0.1130500007,-0.004199999906,-3.067399937,-9.074799991,-0.39199999119999995,-0.7895151160605756,-0.6137311149940631,-0.046456537363478,0.9989203122052308
574,-0.435677141,-0.1200413257,0.6650415659000001,-0.4146337211,-0.09117500066999999,0.1130500007,-0.004199999906,-3.067399937,-9.074799991,-0.39199999119999995,-0.7750747275056669,-0.6318695805164356,-0.06501667632443264,0.9978841775475368
575,-0.4322254658,-0.1277116984,0.670791924,-0.7200211883,-0.07192500234,0.10009999630000001,-0.124775002,-1.871799996,-10.43700056,-1.607200044,-0.7602177139989041,-0.6496683979710575,-0.08355434862118133,0.9965032216839492
576,-0.42532214520000006,-0.1361491084,0.8545557261,-0.9877857566,-0.07192500234,0.10009999630000001,-0.124775002,-1.871799996,-10.43700056,-1.607200044,-0.7449520616122343,-0.6671179999817738,-0.10206314851780794,0.994777921806989
577,-0.42033639549999996,-0.1465041041,0.9104471206999999,-1.277563095,-0.155224998,0.038325001000000004,0.07472499967,-3.2731999160000003,-10.64279966,-1.6561999980000002,-0.7292859760727495,-0.6842090068857739,-0.1205366802553229,0.992708874098054
578,-0.41420009729999996,-0.157242626,0.9987846017,-1.5106315609999998,-0.155224998,0.038325001000000004,0.07472499967,-3.2731999160000003,-10.64279966,-1.6561999980000002,-0.7132278783518755,-0.7009322317754278,-0.13896856026172993,0.9902967935214079
579,-0.4053791761,-0.1691317111,1.2089756729999999,-1.73622942,-0.1583750033,0.07455000401,0.1195249987,-1.950200009,-10.21160054,-1.362199986,-0.6967864001388592,-0.7172786854365112,-0.15735241935788613,0.9875425135771219
580,-0.4000099003,-0.1810207814,1.180395007,-1.9100949759999999,-0.1583750033,0.07455000401,0.1195249987,-1.950200009,-10.21160054,-1.362199986,-0.6799703792009828,-0.7332395811801704,-0.1756819049583859,0.9844469860130574
581,-0.3934900761,-0.19214282929999998,1.202601671,-1.99502492,-0.1188249993,0.10009999630000001,0.1132249963,-2.136399949,-10.16259942,-0.8133999690000001,-0.6627888546330142,-0.748806339566017,-0.1939506832667127,0.9810112804959866
582,-0.385052681,-0.2036483735,1.325487018,-2.075267315,-0.12110000130000001,0.07875,0.09607499599,-1.950200009,-10.37820015,-0.6174000099,-0.6452510619984297,-0.763970593013827,-0.2121524414638956,0.9772365842419677
583,-0.3754647076,-0.2209067196,1.35411787,-2.108455181,-0.12110000130000001,0.07875,0.09607499599,-1.950200009,-10.37820015,-0.6174000099,-0.6273664283650391,-0.7787241903013506,-0.2302808898899195,0.9731242016060986
584,-0.3735471368,-0.2243583798,1.234541059,-2.065223455,-0.12110000130000001,0.07875,0.09607499599,-1.950200009,-10.37820015,-0.6174000099,-0.6091445672376581,-0.793059200945835,-0.2483297642171328,0.9686755536317944
585,-0.3685613871,-0.2335628271,1.160818219,-1.9060611719999998,-0.1317750037,0.035,0.134575001,-1.6365999580000001,-10.00580027,-0.6075999901,-0.5905952733905774,-0.8069679194668826,-0.2662928276148983,0.9638921775597424
586,-0.3616580367,-0.24200023710000002,1.218573809,-1.8464943169999999,-0.1317750037,0.035,0.134575001,-1.6365999580000001,-10.00580027,-0.6075999901,-0.5717285176025915,-0.8204428695283683,-0.28416387290474604,0.9587757262967056
587,-0.35743933920000004,-0.24852006140000002,1.130673885,-1.697537661,-0.146650002,0.00630000025,0.135625,-1.391600046,-9.525600028,-0.6467999965,-0.5525544412974137,-0.8334768079571879,-0.30193672470527777,0.9533279678443559
588,-0.35322064159999994,-0.2565739453,1.04111886,-1.66635251,-0.146650002,0.00630000025,0.135625,-1.391600046,-9.525600028,-0.6467999965,-0.533083351092372,-0.8460627286366696,-0.3196052415660853,0.9475507846883375
589,-0.3478513658,-0.2638607919,1.030916095,-1.60996592,-0.186200006,-0.02362500042,0.139824996,-1.499399972,-9.437399995,-0.8722000152,-0.5133257132583077,-0.858193866272563,-0.3371633180899415,0.94144617314777
590,-0.34209859369999995,-0.2711476684,1.057359695,-1.568706036,-0.186200006,-0.02362500042,0.139824996,-1.499399972,-9.437399995,-0.8722000152,-0.49329214809364963,-0.869863700029581,-0.3546048870425357,0.9350162426854148
591,-0.3363458216,-0.27651691440000004,1.0871894359999998,-1.438665628,-0.21175000670000002,-0.02362500042,0.1590750027,-1.460200039,-9.016000164,-1.097600034,-0.4729934242157006,-0.8810659570365356,-0.37192392144901987,0.9282632151787462
592,-0.3305930495,-0.2826532125,1.1050977709999998,-1.385593295,-0.21175000670000002,-0.02362500042,0.1590750027,-1.460200039,-9.016000164,-1.097600034,-0.45244045277219835,-0.8917946157581846,-0.38911443667664547,0.9211894241521755
593,-0.3252237737,-0.2880224884,1.09458828,-1.30876565,-0.223475008,-0.0267749995,0.1174250007,-1.401400065,-8.075200009,-0.9701999947,-0.43164428157625423,-0.9020439092319837,-0.40617049250276505,0.9137973139706974
594,-0.3171698749,-0.2922411859,1.2392416000000002,-1.185513258,-0.223475008,-0.0267749995,0.1174250007,-1.401400065,-8.075200009,-0.9701999947,-0.41061608916784254,-0.9118083281679907,-0.4230861951674909,0.9060894389952329
595,-0.3129511774,-0.2968434095,1.133586645,-1.1044467690000002,-0.22662499670000003,-0.03220000058,0.032025000750000004,-1.146599987,-8.271199822,-0.8330000087999999,-0.3893671788050074,-0.9210826239102708,-0.43985569941029895,0.8980684626999641
596,-0.3060478568,-0.3029797077,1.192161322,-1.118723989,-0.22662499670000003,-0.03220000058,0.032025000750000004,-1.146599987,-8.271199822,-0.8330000087999999,-0.3679089723880429,-0.9298618112581968,-0.4564732104898698,0.8897371567519652
597,-0.2999115586,-0.3098830283,1.195214033,-1.1864799259999999,-0.2203250027,-0.03534999967,0.011900000130000001,-1.107399981,-8.320199776,-0.7153999895,-0.3462530043198879,-0.9381411711461403,-0.47293298618647656,0.8810984000534458
598,-0.292624712,-0.3152523041,1.25513804,-1.156595826,-0.2203250027,-0.03534999967,0.011900000130000001,-1.107399981,-8.320199776,-0.7153999895,-0.3244109153060549,-0.9459162531801045,-0.48922933878622205,0.8721551777469397
599,-0.2853378356,-0.3210050762,1.308187842,-1.151352763,-0.201074996,-0.02467499942,-0.004199999906,-1.009400001,-8.408399807999999,-0.4704000041,-0.3023944460974188,-0.9531828780299378,-0.5053566370464415,0.862910580183782
600,-0.2803521156,-0.3271413743,1.223809838,-1.172331095,-0.201074996,-0.02467499942,-0.004199999906,-1.009400001,-8.408399807999999,-0.4704000041,-0.28021543117921976,-0.9599371396758456,-0.5213093081415917,0.8533678018562307
601,-0.2742158175,-0.3328941464,1.212221742,-1.1727027890000001,-0.1786750007,-0.0001749999961,-0.02012499958,-1.12700002,-8.330000234,-0.4115999945,-0.25788579240969395,-0.9661754075079867,-0.5370818395889535,0.8435301402936031
602,-0.26654544469999997,-0.33826342229999995,1.300850034,-1.1492581370000001,-0.1786750007,-0.0001749999961,-0.02012499958,-1.12700002,-8.330000234,-0.4115999945,-0.23541753261172516,-0.9718943282780321,-0.5526687811534834,0.8334009949228061
603,-0.2596420944,-0.3455502689,1.1924248929999999,-1.112295032,-0.146650002,0.02012499958,-0.039375,-1.146599987,-8.388800061,-0.39199999119999995,-0.21282272912098912,-0.9770908279016307,-0.5680647467311556,0.8229838658936566
604,-0.2538893223,-0.34900194409999996,1.2542949909999999,-1.058868527,-0.146650002,0.02012499958,-0.039375,-1.146599987,-8.388800061,-0.39199999119999995,-0.19011352729403158,-0.9817621131108195,-0.5832644162101415,0.8122823528693965
605,-0.250054121,-0.3536041677,1.197952747,-1.022516727,-0.113574996,0.02869999975,-0.06282499849999999,-1.058400027,-8.565200126,-0.43119999770000006,-0.16730213397979674,-0.9859056729554841,-0.5982625373091871,0.8013001537828216
606,-0.2466024607,-0.3578228652,1.069006801,-0.9802474379999999,-0.113574996,0.02869999975,-0.06282499849999999,-1.058400027,-8.565200126,-0.43119999770000006,-0.14440081095808888,-0.9895192801530682,-0.6130539273925526,0.79004106355845
607,-0.2412331998,-0.3624250889,1.061657071,-0.9721957445,-0.08470000267000001,0.035,-0.1002750003,-0.8917999819,-8.594599748,-0.7252000093000001,-0.1214218683485159,-0.9926009922858005,-0.6276334752608818,0.7785089728011798
608,-0.23509690170000003,-0.3658767641,1.109620214,-0.9166676401999999,-0.08470000267000001,0.035,-0.1002750003,-0.8917999819,-8.594599748,-0.7252000093000001,-0.09837765799344854,-0.9951491528448004,-0.6419961429173907,0.7667078664518796
609,-0.230494678,-0.3677943349,1.065512061,-0.7860841751000001,-0.05495000183999999,0.033950001,-0.128974998,-0.8133999690000001,-8.692600237999999,-0.9211999685,-0.07528056681854392,-0.9971623921205005,-0.6561369673087585,0.7546418224103837
610,-0.22665949170000002,-0.37124601009999997,0.9778148532,-0.7584972381999999,-0.05495000183999999,0.033950001,-0.128974998,-0.8133999690000001,-8.692600237999999,-0.9211999685,-0.05214301017442382,-0.9986396279389027,-0.6700510620401223,0.7423150101263642
611,-0.2216737568,-0.3727800846,0.9681839347,-0.6321311593,-0.03674999833,0.0180249995,-0.14297500130000002,-0.7938000023,-8.810199893,-0.7938000023,-0.028977425163059695,-0.9995800662432797,-0.6837336190635822,0.7297316891585676
612,-0.21745504440000002,-0.3777658343,0.9287368655,-0.7292710543,-0.03674999833,0.0180249995,-0.14297500130000002,-0.7938000023,-8.810199893,-0.7938000023,-0.0057962639524798375,-0.9999832015210022,-0.6971799103396334,0.7168962077029147
613,-0.2101681978,-0.3808339834,1.017202258,-0.7090060115000001,-0.029224999249999998,-0.002274999917,-0.1867250013,-0.6272000298,-9.035599911,-1.048600008,0.01738801291663517,-0.9998488170752671,-0.7103852894709515,0.7038130010899717
614,-0.20633301140000002,-0.3804504573,0.9982555509000001,-0.4975949824,-0.029224999249999998,-0.002274999917,-0.1867250013,-0.6272000298,-9.035599911,-1.048600008,0.04056294322884781,-0.999176985141578,-0.7233451933079662,0.6904865902523097
615,-0.2017307878,-0.38236805799999996,0.9754504561,-0.45700234170000004,-0.002625000104,-0.01925000042,-0.175,-0.9309999883,-8.741600192,-0.8525999755,0.06371606979276453,-0.9979680668489166,-0.7360551435256673,0.6769215801622883
616,-0.1955944896,-0.38620322939999996,1.039204121,-0.5350161791,-0.002625000104,-0.01925000042,-0.175,-0.9309999883,-8.741600192,-0.8525999755,0.08683494713713077,-0.9962227120256252,-0.7485107481711009,0.6631226582407954
617,-0.1902252287,-0.38927137850000004,0.9910818337999999,-0.5512115955,0.004900000021,-0.054599998,-0.22819999929999998,-0.5978000067,-9.035599911,-0.9309999883,0.10990714820063488,-0.9939418588501058,-0.76070770318102,0.6490945927374971
618,-0.185623005,-0.3900384307,0.9648041725,-0.44739943740000004,0.004900000021,-0.054599998,-0.22819999929999998,-0.5978000067,-9.035599911,-0.9309999883,0.13292027101180826,-0.9911267333465219,-0.7726417938691617,0.6348422310831596
619,-0.17987023289999998,-0.39118897909999994,1.070401311,-0.3917359114,0.03149999917,-0.07490000367,-0.2091249967,-0.9114000216,-8.819999766,-0.9016000018000001,0.155861945355439,-0.9877788487257754,-0.7843088963826432,0.6203704982146074
620,-0.17565152050000002,-0.39157250520000003,0.9651475548999999,-0.3101811111,0.03149999917,-0.07490000367,-0.2091249967,-0.9114000216,-8.819999766,-0.9016000018000001,0.17871983942192438,-0.9839000045721118,-0.7957049791269681,0.6056843948729002
621,-0.17066578570000002,-0.39118897909999994,0.9689465165000001,-0.2106381208,0.049699998499999995,-0.09834999800000001,-0.2763249993,-0.5978000067,-8.320199776,-1.107399981,0.20148166643596607,-0.979492285875793,-0.8068261041591543,0.5907889958753136
622,-0.166063562,-0.39157250520000003,1.017152309,-0.17456853390000002,0.05617500067000001,-0.1431500053,-0.33285000800000003,-0.4704000041,-8.839600098,-1.156400007,0.22413519126107218,-0.9745580619123535,-0.8176684285484982,0.575689448361727
623,-0.1591602266,-0.39157250520000003,0.9710196853,-0.10368791220000001,0.05617500067000001,-0.1431500053,-0.33285000800000003,-0.4704000041,-8.839600098,-1.156400007,0.2466682369762878,-0.9690999849690485,-0.8282282057045086,0.5603909700160149
624,-0.1564755887,-0.39157250520000003,0.9647357464,-0.08502399921,0.05617500067000001,-0.1431500053,-0.33285000800000003,-0.4704000041,-8.839600098,-1.156400007,0.2690686914216474,-0.9631209889191712,-0.8385017866715505,0.5448988472630655
625,-0.1511063278,-0.3919560313,1.007888198,-0.08334760368,0.05722499967,-0.166600008,-0.35,-0.5879999869,-8.96700021,-1.146599987,0.29132451370880186,-0.9566242876450138,-0.8484856213897497,0.5292184334420432
626,-0.14918874199999999,-0.39157250520000003,0.8444204926000001,-0.04138569534,0.05722499967,-0.166600008,-0.35,-0.5879999869,-8.96700021,-1.146599987,0.31342374069334816,-0.9496133733103114,-0.858176259921724,0.5133551469565311
627,-0.1445865184,-0.3919560313,0.9093063473999999,-0.0439690575,0.0465500015,-0.18900000329999997,-0.38080000399999997,-0.4900000073,-8.96700021,-1.028999968,0.3353544934053613,-0.9420920144831042,-0.8675703536447177,0.49731446940218765
628,-0.1396007687,-0.3934900761,0.9348952173999999,-0.1115844026,0.0465500015,-0.18900000329999997,-0.38080000399999997,-0.4900000073,-8.96700021,-1.028999968,0.35710498343467917,-0.934064254110025,-0.8766646564077262,0.4811019436725687
629,-0.1349985451,-0.3950241506,0.8788327575,-0.1617394686,0.027299999,-0.19652499199999998,-0.403200016,-0.5292000137,-9.035599911,-0.8428000286,0.37866351926751823,-0.925534407343097,-0.8854560256532098,0.4647231720437687
630,-0.129245773,-0.3980922997,0.947676897,-0.2734515071,0.027299999,-0.19652499199999998,-0.403200016,-0.5292000137,-9.035599911,-0.8428000286,0.40001851257099136,-0.9165070592202177,-0.8939414235030132,0.4481838142385402
631,-0.12426003070000001,-0.4000099003,0.9654163122,-0.2970825136,0.01557499975,-0.19547500129999998,-0.414924984,-0.49979999070000003,-9.22179985,-0.950600028,0.4211584844221769,-0.9069870622005669,-0.9021179178081105,0.43148958547056415
632,-0.1188907698,-0.40039342640000003,0.9966380596,-0.236376211,0.01557499975,-0.19547500129999998,-0.414924984,-0.49979999070000003,-9.22179985,-0.950600028,0.442072071478363,-0.896979533556273,-0.9099826831618166,0.4146462544695429
633,-0.1150555834,-0.40154397490000004,0.9435603023,-0.2384440154,0.03149999917,-0.16974999670000002,-0.424550004,-0.49979999070000003,-8.516200173,-0.3136000149,0.4627480320851776,-0.8864898526217293,-0.9175330018761129,0.39765964148780436
634,-0.1096863225,-0.4000099003,0.9753940701,-0.09768733382000001,0.03149999917,-0.16974999670000002,-0.424550004,-0.49979999070000003,-8.516200173,-0.3136000149,0.4831752523192945,-0.8755236579020501,-0.9247662649207505,0.3805356162890989
635,-0.10278298710000001,-0.4011604488,1.083927751,-0.1302349418,0.045499998330000006,-0.1548750067,-0.551600008,-0.06860000212,-8.084999883,-0.235200002,0.5033427519624931,-0.8640868440422086,-0.9316799728248073,0.363280096120289
636,-0.0989478007,-0.40154397490000004,1.018817186,-0.1187766865,0.045499998330000006,-0.1548750067,-0.551600008,-0.06860000212,-8.084999883,-0.235200002,0.523239690403835,-0.8521855586584995,-0.9382717365403852,0.345899043666631
637,-0.09396205842000001,-0.40154397490000004,0.9952141643000001,-0.08884181827,0.05722499967,-0.1741249967,-0.6305249786,0.009800000465,-8.46720022,-0.48019998740000003,0.5428553724668096,-0.8398261990340152,-0.9445392782681521,0.3283984649913551
638,-0.08667520434,-0.4011604488,1.107025504,-0.04314330593,0.05722499967,-0.1741249967,-0.6305249786,0.009800000465,-8.46720022,-0.48019998740000003,0.5621792541582967,-0.8270154086799237,-0.9504804322444398,0.31078440746025665
639,-0.07977186888,-0.40154397490000004,1.182529926,-0.04935623705,0.07630000234,-0.181474998,-0.6732250214,-0.03920000186,-8.457399762,-0.6860000029000001,0.5812009483362638,-0.8137600737643913,-0.9560931454896298,0.29306295765201323
640,-0.0736355707,-0.401927501,1.195609093,-0.051415160300000005,0.07630000234,-0.181474998,-0.6732250214,-0.03920000186,-8.457399762,-0.6860000029000001,0.5999102302931577,-0.8000673194110671,-0.9613754785175638,0.2752402392549556
641,-0.06749927253,-0.4026945233,1.191366911,-0.07820270956,0.08487499832999999,-0.1741249967,-0.7362249947,0.06860000212,-8.516200173,-0.7839999825,0.6182970432519771,-0.7859445058691248,-0.9663256060057391,0.25732241095101116
642,-0.05829482897999999,-0.40461212399999996,1.346209288,-0.1624087095,0.07630000234,-0.166600008,-0.782074976,0.1372000042,-9.231599724,-0.9211999685,0.6363515037720769,-0.7713992245569192,-0.9709418174260519,0.2393156642875581
643,-0.04909038171,-0.4088308215,1.331344843,-0.3078070283,0.07630000234,-0.166600008,-0.782074976,0.1372000042,-9.231599724,-0.9211999685,0.6540639070618062,-0.7564392939813775,-0.9752225176358753,0.22122622153791988
644,-0.04295408353,-0.4111319482,1.448101759,-0.38066998119999995,0.07630000234,-0.166600008,-0.782074976,0.1372000042,-9.231599724,-0.9211999685,0.6714247321951103,-0.7410727555353283,-0.9791662274292636,0.20306033355124678
645,-0.03490019217,-0.41458362340000005,1.494457245,-0.45701763030000003,0.068950001,-0.1452500033,-0.739375,-0.1274000026,-9.69220022,-0.950600028,0.688424647229301,-0.7253078691750232,-0.982771584048096,0.18482427759251865
646,-0.02799685858,-0.41880232100000003,1.4655472040000002,-0.5559819341,0.068950001,-0.1452500033,-0.739375,-0.1274000026,-9.69220022,-0.950600028,0.7050545142212473,-0.7091531089801701,-0.9860373416529802,0.16652435517342232
647,-0.02071000449,-0.4237880707,1.470466733,-0.6699966788,0.065625,-0.12389999869999999,-0.6924749947,0.1274000026,-10.25080004,-0.9114000216,0.7213053941392813,-0.6926171585988729,-0.9889623717537562,0.1481668898748476
648,-0.0130396327,-0.42647269369999996,1.4864251609999999,-0.6397271156000001,0.065625,-0.12389999869999999,-0.6924749947,0.1274000026,-10.25080004,-0.9114000216,0.7371685516681818,-0.675708906579923,-0.9915456635994478,0.12975822516176197
649,-0.0061362977139999995,-0.4306913912,1.457312584,-0.6888626218,0.07962500334,-0.1111249983,-0.6797000027,0.8133999690000001,-10.66240058,-1.1172000009999998,0.7526354599046633,-0.6584374415949446,-0.9937863245275302,0.11130472219120958
650,0.001150555792,-0.4333760142,1.456439614,-0.6481397152,0.07962500334,-0.1111249983,-0.6797000027,0.8133999690000001,-10.66240058,-1.1172000009999998,0.7676978049408254,-0.6408120475529766,-0.9956835802723916,0.09281275761419906
651,0.008053890429,-0.435677141,1.433923364,-0.5903950334,0.09134999632999999,-0.1259999967,-0.5846749972999999,0.1666000091,-10.86819968,-0.8525999755,0.782347490333123,-0.6228421986101006,-0.9972367752328822,0.07428872137223692
652,0.014957225880000003,-0.4372112155,1.4189776180000002,-0.5081756115,0.09134999632999999,-0.1259999967,-0.5846749972999999,0.1666000091,-10.86819968,-0.8525999755,0.7965766414544323,-0.604537554076814,-0.9984453726988598,0.055739014489268296
653,0.01879241131,-0.4406628907,1.246040463,-0.5560836792,0.112700001,-0.1228499997,-0.5356750107,0.4018000111,-10.97600005,-0.882000035,0.8103776097268942,-0.5859079532258678,-0.9993089550366498,0.03717004685978869
654,0.02531222813,-0.4421969652,1.243484974,-0.4820059836,0.112700001,-0.1228499997,-0.5356750107,0.4018000111,-10.97600005,-0.882000035,0.8237429767332402,-0.5669634100033798,-0.9998272238333605,0.01858823503388815
655,0.03144852445,-0.444114536,1.245622396,-0.4541252851,0.1254750013,-0.1303749967,-0.451325016,0.4900000073,-11.29939997,-0.6566000164,0.8366655582044094,-0.5477141076460456,-1.0,1.2246467991473532e-16
656,0.03643426672,-0.444114536,1.191371083,-0.3356743157,0.1254750013,-0.1303749967,-0.451325016,0.4900000073,-11.29939997,-0.6566000164,0.8491384078812956,-0.5281703932073613,-0.9998272238333606,-0.018588235033887908
657,0.03988593444,-0.44373103979999995,1.064909458,-0.226337418,0.146825006,-0.12810000300000002,-0.3830749893,0.5782000035,-10.69179962,-0.9211999685,0.8611548212485644,-0.5083427719957796,-0.9993089550366498,-0.03717004685978844
658,0.04333760217,-0.4433475137,0.9554730057999999,-0.1417574883,0.146825006,-0.12810000300000002,-0.3830749893,0.5782000035,-10.69179962,-0.9211999685,0.872708339138522,-0.4882419019278073,-0.9984453726988599,-0.0557390144892676
659,0.04832334444,-0.4448815882,0.9547640681,-0.1928477734,0.151025002,-0.14629999400000002,-0.3531500053,1.028999968,-10.68200033,-0.6664000362,0.8837927512031019,-0.46787858779907,-0.9972367752328822,-0.07428872137223667
660,0.05330908671,-0.4452651143,0.9675350189,-0.16872823239999998,0.151025002,-0.14629999400000002,-0.3531500053,1.028999968,-10.68200033,-0.6664000362,0.8944020992521089,-0.4472637754764193,-0.9956835802723916,-0.09281275761419881
661,0.05829482897999999,-0.4452651143,0.9755457044,-0.1303455383,0.15644999269999998,-0.136674999,-0.275274992,0.8917999819,-10.87800014,-0.5683999836,0.9045306804559138,-0.4264085460142205,-0.9937863245275302,-0.11130472219120933
662,0.06213001534,-0.4448815882,0.9281252623,-0.06656564772000001,0.15644999269999998,-0.136674999,-0.275274992,0.8917999819,-10.87800014,-0.5683999836,0.914173050410892,-0.40532410969796084,-0.991545663599448,-0.12975822516176175
663,0.06941686571000001,-0.44564861060000005,0.9684914947,-0.07828136533,0.142450006,-0.1100749993,-0.214375,1.293599993,-10.87800014,-0.3233999982,0.9233240260659439,-0.3840218000184053,-0.9889623717537563,-0.14816688987484739
664,0.07440260798,-0.44679918890000003,1.093542099,-0.1357426345,0.142450006,-0.1100749993,-0.214375,1.293599993,-10.87800014,-0.3233999982,0.9319786885085364,-0.362513067579513,-0.9860373416529802,-0.1665243551734221
665,0.07670371979,-0.44756621119999995,0.9353744387999999,-0.1498833299,0.1200500023,-0.07052500367,-0.1524250007,1.303400013,-10.71140053,-0.009800000465,0.9401323856087572,-0.3408094739434147,-0.9827715840480958,-0.18482427759251888
666,0.08399057388,-0.4471826851,1.069273353,-0.1035206318,0.1200500023,-0.07052500367,-0.1524250007,1.303400013,-10.71140053,-0.009800000465,0.9477807345199711,-0.3189226854157351,-0.9791662274292637,-0.2030603335512461
667,0.08859279752,-0.4479497373,1.032399178,-0.1203408465,0.111650002,-0.02467499942,-0.090649997,1.175999974,-10.73100028,0.1077999994,0.9549196240347249,-0.2968644667746204,-0.9752225176358755,-0.22122622153791924
668,0.09396205842000001,-0.4483332634,1.036364198,-0.1076186523,0.111650002,-0.02467499942,-0.090649997,1.175999974,-10.73100028,0.1077999994,0.9615452167946381,-0.2746466749468347,-0.9709418174260521,-0.23931566428755746
669,0.09971483797,-0.44871675969999997,1.063838005,-0.1063454151,0.105175004,0.02327500075,-0.02975000083,1.25440006,-10.97600005,-0.2744000085,0.9676539513530964,-0.25228125263431544,-0.9663256060057391,-0.25732241095101094
670,0.1070016921,-0.4460321367,1.172768593,0.045818246900000005,0.105175004,0.02327500075,-0.02975000083,1.25440006,-10.97600005,-0.2744000085,0.9732425440896293,-0.2297802218946314,-0.9613754785175639,-0.2752402392549554
671,0.1116039157,-0.444114536,1.116450787,0.1394968629,0.1233750033,0.07244999766,0.03639999866,1.23480002,-10.31939974,-0.6174000099,0.9783079909749515,-0.20715567767877907,-0.9560931454896298,-0.293062957652013
672,0.1162061393,-0.4429639876,1.066092014,0.1678975075,0.1233750033,0.07244999766,0.03639999866,1.23480002,-10.31939974,-0.6174000099,0.9828475691857145,-0.18441978132980258,-0.9504804322444399,-0.3107844074602565
673,0.1204248443,-0.4406628907,1.0085853340000002,0.2337451428,0.1275749993,0.09904999732999999,0.086450001,1.313200033,-10.47620006,-0.5488000169,0.9868588385681032,-0.16158475404571576,-0.9445392782681522,-0.3283984649913549
674,0.1246435493,-0.438361764,0.9584558606,0.282017976,0.1275749993,0.09904999732999999,0.086450001,1.313200033,-10.47620006,-0.5488000169,0.9903396429494877,-0.13866287031026395,-0.9382717365403853,-0.3458990436666308
675,0.1284787357,-0.4337595403,0.9075077176,0.44516569380000004,0.1436750007,0.121450001,0.1911000013,1.048600008,-10.81919973,-0.9114000216,0.9932881112974294,-0.1156664512950298,-0.9316799728248073,-0.3632800961202888
676,0.1307798475,-0.4280067682,0.7849069237999999,0.6314784288,0.1436750007,0.121450001,0.1911000013,1.048600008,-10.81919973,-0.9114000216,0.9957026587254135,-0.09260785823645197,-0.9247662649207506,-0.38053561628909865
677,0.1338479966,-0.4211034179,0.7341253161,0.8307796717,0.184100008,0.1545249987,0.327599988,0.5586000003,-9.809800458,-0.8036000222,0.9975819873447714,-0.0694994857913078,-0.917533001876113,-0.39765964148780414
678,0.1349985451,-0.41266602280000003,0.5894134045,1.061808348,0.184100008,0.1545249987,0.327599988,0.5586000003,-9.809800458,-0.8036000222,0.9989250869623341,-0.04635375537422263,-0.9099826831618166,-0.4146462544695427
679,0.1353820711,-0.40346157549999995,0.4447251558,1.268811584,0.20440000530000002,0.159950006,0.2945249987,0.9995999812999999,-9.300200009,-1.156400007,0.9997312356234385,-0.023183108480809487,-0.9021179178081106,-0.431489585470564
680,0.1361491084,-0.3919560313,0.3606271446,1.468545556,0.20440000530000002,0.159950006,0.2945249987,0.9995999812999999,-9.300200009,-1.156400007,1.0,-2.4492935982947064e-16,-0.8939414235030135,-0.4481838142385396
681,0.13461503390000001,-0.3808339834,0.181539461,1.6682548519999998,0.2226000047,0.1417500067,0.2955749893,1.097600034,-9.378600168,-1.411199939,1.0,0.0,-0.8854560256532101,-0.46472317204376806
682,0.13423150779999998,-0.37124601009999997,0.1001821384,1.7262405159999998,0.245,0.11409999970000001,0.36714999200000004,0.9211999685,-9.016000164,-1.587600005,0.999751793267259,0.0222789555163537,-0.8766646564077265,-0.4811019436725681
683,0.1330809593,-0.3551382422,-0.003503780812,1.92153883,0.245,0.11409999970000001,0.36714999200000004,0.9211999685,-9.016000164,-1.587600005,0.9990072962822006,0.044546851459192204,-0.867570353644718,-0.4973144694021871
684,0.1326974332,-0.3497689664,-0.02172844298,1.898206949,0.245,0.11409999970000001,0.36714999200000004,0.9211999685,-9.016000164,-1.587600005,0.9977668786231532,0.06679263374512155,-0.8581762599217241,-0.5133551469565308
685,0.131930396,-0.3378798962,-0.06738764793,2.013173342,0.2546250033,0.1130500007,0.3468499947,0.3332000181,-8.359399855,-1.734600011,0.9960311560501454,0.08900525926826482,-0.8484856213897498,-0.5292184334420431
686,0.1326974332,-0.3263743222,-0.02032222226,2.083679199,0.2546250033,0.1130500007,0.3468499947,0.3332000181,-8.359399855,-1.734600011,0.9938009901992347,0.11117370138220861,-0.8385017866715507,-0.5448988472630653
687,0.1315468848,-0.31448525190000004,-0.07355327159,2.156177044,0.234325006,0.127924999,0.25077499870000003,-0.4214000143,-8.271199822,-0.9800000146,0.9910774881547801,0.13328695537377883,-0.8282282057045087,-0.5603909700160147
688,0.1326974332,-0.303363204,0.0034425407650000004,2.181612253,0.234325006,0.127924999,0.25077499870000003,-0.4214000143,-8.271199822,-0.9800000146,0.9878620018998695,0.15533404392592842,-0.8176684285484985,-0.5756894483617264
689,0.13116335869999998,-0.2964598835,-0.08078649639999999,1.958698511,0.1819999933,0.1503250027,0.08224999666,-2.185400048,-8.663200032999999,-0.35279998479999997,0.9841561276451779,0.17730402256702546,-0.8068261041591548,-0.5907889958753131
690,0.1307798475,-0.2907071114,-0.08573053777,1.7384939190000002,0.1819999933,0.1503250027,0.08224999666,-2.185400048,-8.663200032999999,-0.35279998479999997,0.9799617050365869,0.19918598510383606,-0.7957049791269686,-0.6056843948728996
691,0.1300128102,-0.283803761,-0.10209955279999999,1.645554304,0.10097499970000001,0.207900002,-0.1034249973,-4.321800143,-10.43700056,0.1469999967,0.9752808162419591,0.2209690690355059,-0.7843088963826435,-0.6203704982146072
692,0.1269446611,-0.2769004405,-0.24039179089999999,1.5686967369999998,0.10097499970000001,0.207900002,-0.1034249973,-4.321800143,-10.43700056,0.1469999967,0.9701157849175226,0.24264246094585154,-0.7726417938691619,-0.6348422310831594
693,0.1280952096,-0.2734487653,-0.1172664911,1.33799088,-0.0175,0.2763249993,-0.36592499729999994,-5.360599911,-12.181400300000002,1.9600000290000001,0.9644691750543766,0.264195401871286,-0.7607077031810201,-0.6490945927374969
694,0.1265611351,-0.27268174289999997,-0.1537428647,1.029538751,-0.0175,0.2763249993,-0.36592499729999994,-5.360599911,-12.181400300000002,1.9600000290000001,0.9583437897056915,0.28561719264171315,-0.7485107481711011,-0.6631226582407953
695,0.1250270605,-0.27651691440000004,-0.1903030425,0.5588654279999999,-0.3344250107,0.349824996,-0.5750500107000001,-3.82199986,-16.85600028,3.351600075,0.9517426695952355,0.30689719919173986,-0.7360551435256677,-0.6769215801622879
696,0.1219589189,-0.281119138,-0.2950932384,0.16772753,-0.3344250107,0.349824996,-0.5750500107000001,-3.82199986,-16.85600028,3.351600075,0.9446690916079188,0.3280248578395691,-0.7233451933079666,-0.6904865902523092
697,0.1200413257,-0.2876389623,-0.3284296095,-0.221246317,-0.5810000134000001,0.3872749853,-0.253925004,-1.107399981,-17.42439997,3.9787998860000005,0.9371265671631035,0.348989680530954,-0.7103852894709519,-0.7038130010899711
698,0.11850725109999999,-0.2941587865,-0.3236407638,-0.5117108821999999,-0.5810000134000001,0.3872749853,-0.253925004,-1.107399981,-17.42439997,3.9787998860000005,0.9291188404714876,0.36978126004560913,-0.6971799103396337,-0.7168962077029144
699,0.11543910210000001,-0.2995280325,-0.4035272896,-0.6641882062,-0.603399992,0.5045249987,-0.03307499975,0.7447999761,-11.53460045,1.773799944,0.9206498866764288,0.39038927516349475,-0.6837336190635824,-0.7297316891585673
700,0.1100698411,-0.3014456332,-0.5856096148,-0.5534814,-0.603399992,0.5045249987,-0.03307499975,0.7447999761,-11.53460045,1.773799944,0.9117239098806295,0.4108034957884096,-0.6700510620401225,-0.742315010126364
701,0.1020159498,-0.3025961816,-0.8585864902,-0.47384583950000003,-0.389900012,0.5675250053,-0.127924999,1.75420005,-8.72199986,0.49979999070000003,0.9023453410591636,0.431013788026348,-0.6561369673087588,-0.7546418224103835
702,0.09242798388000001,-0.3045137823,-1.132271528,-0.4376415312,-0.389900012,0.5675250053,-0.127924999,1.75420005,-8.72199986,0.49979999070000003,0.8925188358598812,0.4510101192161018,-0.6419961429173917,-0.7667078664518788
703,0.07401908934,-0.3029797077,-1.592248678,-0.1904118359,-0.11042499900000001,0.5867749785999999,-0.1023749983,0.9016000018000001,-9.515800153999999,-2.959599864,0.8822492722922818,0.4707825629096082,-0.6276334752608824,-0.7785089728011793
704,0.06941686571000001,-0.30029505489999997,-1.670902848,-0.0039116814730000005,-0.11042499900000001,0.5867749785999999,-0.1023749983,0.9016000018000001,-9.515800153999999,-2.959599864,0.871541748306005,0.4903213037995721,-0.6130539273925535,-0.7900410635584493
705,0.05829482897999999,-0.2956928313,-1.813895464,0.2425081283,0.09450000167000001,0.524824996,0.0,-0.4900000073,-9.192400229,-4.772599888,0.8604015792601394,0.5096166425919174,-0.5982625373091878,-0.801300153782821
706,0.0437211208,-0.2895565629,-2.106070757,0.5109605789,0.09450000167000001,0.524824996,0.0,-0.4900000073,-9.192400229,-4.772599888,0.8488342952846073,0.5286590008206464,-0.5832644162101421,-0.8122823528693961
707,0.032599080350000004,-0.2818861902,-2.143246651,0.7771392465000001,0.11375,0.455525012,-0.126875,-1.597400025,-10.3977999,-5.233199798999999,0.8368456385349331,0.5474389256027198,-0.5680647467311559,-0.8229838658936564
708,0.02071000449,-0.27306523920000003,-2.203593493,1.037277937,0.11375,0.455525012,-0.126875,-1.597400025,-10.3977999,-5.233199798999999,0.8244415603417603,0.5659470943305952,-0.5526687811534841,-0.8334009949228057
709,0.008437409066,-0.26424431800000003,-2.270977974,1.226781011,0.002799999937,0.3071249866,-0.22400000329999997,-2.577400112,-12.44599981,-4.576600075,0.8116282182565311,0.5841743193000944,-0.5370818395889534,-0.8435301402936031
710,-0.002684630221,-0.2542728484,-2.253907681,1.437201619,0.002799999937,0.3071249866,-0.22400000329999997,-2.577400112,-12.44599981,-4.576600075,0.7984119729947943,0.6021115522713044,-0.5213093081415919,-0.8533678018562305
711,-0.01610778086,-0.2454519123,-2.36591363,1.5253850219999998,-0.1722000027,0.118300004,-0.245350008,-2.626400065,-13.59259965,-3.0281998569999997,0.784799385278661,0.6197498889602449,-0.5053566370464422,-0.8629105801837815
712,-0.029914451760000006,-0.2370145023,-2.472510099,1.5741992,-0.1722000027,0.118300004,-0.245350008,-2.626400065,-13.59259965,-3.0281998569999997,0.7707972125799735,0.6370805734590744,-0.4892293387862223,-0.8721551777469395
713,-0.04487167671,-0.2301111668,-2.616460562,1.515630364,-0.301349988,-0.06422500133999999,-0.187774992,-2.812600005,-13.78859947,-0.2939999934,0.7564124057658053,0.6540950025826422,-0.4729329861864771,-0.8810984000534454
714,-0.06021242216,-0.2232078314,-2.7386622430000003,1.4751948119999998,-0.301349988,-0.06422500133999999,-0.187774992,-2.812600005,-13.78859947,-0.2939999934,0.7416521056479576,0.6707847301392235,-0.45647321048986994,-0.8897371567519651
715,-0.07670371979,-0.2170715332,-2.879084826,1.408963919,-0.3333749866,-0.1848000073,-0.05652500033,-2.528399867,-13.98460045,2.2049999419999997,0.7265236394381632,0.6871414711233239,-0.43985569941029956,-0.8980684626999638
716,-0.09818076342,-0.2097846717,-3.2588217260000003,1.4304403069999998,-0.3333749866,-0.1848000073,-0.05652500033,-2.528399867,-13.98460045,2.2049999419999997,0.7110345171107608,0.7031571058284679,-0.4230861951674911,-0.9060894389952328
717,-0.1181237325,-0.20518244800000002,-3.469440937,1.310758591,-0.297149992,-0.2616249967,0.134575001,-2.7537998860000004,-13.5141995,3.057600063,0.6951924276746424,0.7188236838779292,-0.40617049250276527,-0.9137973139706973
718,-0.143435955,-0.19827911260000003,-3.717525244,1.27070868,-0.297149992,-0.2616249967,0.134575001,-2.7537998860000004,-13.5141995,3.057600063,0.6790052353563252,0.7341334281714065,-0.38911443667664614,-0.9211894241521753
719,-0.1641459614,-0.19521097839999998,-3.838675499,1.16144979,-0.2351999927,-0.2861250067,0.302050004,-2.195200068,-11.71100051,3.351600075,0.6624809756960444,0.749078738745679,-0.37192392144902003,-0.9282632151787461
720,-0.18178781870000002,-0.191375792,-3.95968318,1.04954505,-0.2351999927,-0.2861250067,0.302050004,-2.195200068,-11.71100051,3.351600075,0.6456278515588024,0.763652196547332,-0.3546048870425359,-0.9350162426854147
721,-0.2078670859,-0.1875406057,-4.0748310089999995,0.9126757382999999,-0.1722000027,-0.2423750067,0.3606750107,-1.75420005,-10.34879994,2.646000105,0.6284542290623568,0.777846567115674,-0.33716331808994127,-0.9414461731477701
722,-0.2197561562,-0.1833218932,-3.8441941739999996,0.909661293,-0.1541750073,-0.13877499699999998,0.3522749853,-2.2049999419999997,-8.271199822,1.4895999519999998,0.6109686334241655,0.7916548041740211,-0.3196052415660855,-0.9475507846883375
723,-0.258875072,-0.1675976366,-4.086441517,1.375463009,-0.1541750073,-0.13877499699999998,0.3522749853,-2.2049999419999997,-8.271199822,1.4895999519999998,0.5931797447293553,0.8050700531275629,-0.3019367247052776,-0.953327967844356
724,-0.2719146907,-0.1591602266,-4.3736886980000005,1.700356007,-0.1541750073,-0.13877499699999998,0.3522749853,-2.2049999419999997,-8.271199822,1.4895999519999998,0.5750963936218104,0.818085654466076,-0.2841638729047469,-0.9587757262967054
725,-0.2876389623,-0.13039632140000001,-4.282099247,2.7753794189999996,0.011199999750000002,0.004199999906,0.2007250047,0.4704000041,-7.565600145,-0.09799999780999999,0.5567275569205217,0.8306951470697943,-0.2662928276148987,-0.9638921775597423
726,-0.3275249004,-0.0989478007,-5.02391386,3.699577808,0.011199999750000002,0.004199999906,0.2007250047,0.4704000041,-7.565600145,-0.09799999780999999,0.5380823531633727,0.842892271416797,-0.24832976421713365,-0.9686755536317941
727,-0.35437119009999996,-0.06443112344,-5.391197205,4.548610687,0.3260249853,-0.03850000083,-0.563324976,-2.293199974,-2.8909998710000004,-0.6075999901,0.5191700380805755,0.8546709726903177,-0.23028088988991993,-0.9731242016060985
728,-0.39233952759999996,-0.034133154900000004,-5.667395592,4.95149231,0.3260249853,-0.03850000083,-0.563324976,-2.293199974,-2.8909998710000004,-0.6075999901,0.5000000000000001,0.8660254037844386,-0.21215244146389609,-0.9772365842419676
729,-0.4199528694,-0.005369260442,-5.626628876,5.159867287,0.2833250093,-0.502774992,-0.5237750053,-2.792999965,-9.133599817999999,-3.7338001189999996,0.48058175518668383,0.8769499282066715,-0.19395068326671272,-0.9810112804959866
730,-0.4421969652,0.02032648586,-5.305021763,5.151015759,0.2833250093,-0.502774992,-0.5237750053,-2.792999965,-9.133599817999999,-3.7338001189999996,0.4609249431188279,0.8874391228759893,-0.17568190495838637,-0.9844469860130572
731,-0.4590717852,0.039502415810000004,-4.776613712,4.796728133999999,0.05722499967,-0.8111249733,-0.6018249893,-2.96940003,-6.761999977,-4.282600063,0.44103932170263166,0.897487780814916,-0.15735241935788594,-0.9875425135771219
732,-0.4728784561,0.05369260535,-4.237503052,4.264909744,0.05722499967,-0.8111249733,-0.6018249893,-2.96940003,-6.761999977,-4.282600063,0.42093476242833516,0.9070909137343406,-0.13896856026173018,-0.9902967935214079
733,-0.48054882880000005,0.06289704889,-3.738656759,3.617031574,-0.1625749993,-0.704375,-0.8385999679999999,-0.235200002,-9.966599607000001,-3.5867999669999997,0.4006212454698797,0.9162437545097715,-0.12053668025532356,-0.992708874098054
734,-0.48361697789999997,0.06788279116,-2.7623229030000003,2.9131097789999996,-0.1625749993,-0.704375,-0.8385999679999999,-0.235200002,-9.966599607000001,-3.5867999669999997,0.38010885473061484,0.9249417595478,-0.10206314851780818,-0.994777921806989
735,-0.4855345488,0.06864982842999999,-2.1394069190000002,2.185614586,-0.3216499853,-0.45675000670000004,-0.5099499893,-0.7938000023,-11.63260036,0.5488000169,0.3594077728375128,0.9331806110416025,-0.08355434862118157,-0.9965032216839492
736,-0.4863016009,0.06826630980000001,-1.721892595,1.5937331909999999,-0.3216499853,-0.45675000670000004,-0.5099499893,-0.7938000023,-11.63260036,0.5488000169,0.33852827608637565,0.9409562191143575,-0.06501667632443243,-0.9978841775475368
737,-0.4859180748,0.06749927253,-1.188155413,1.1301155090000001,-0.2479750013,-0.144199996,-0.19739999530000002,-0.7153999895,-10.97600005,3.969000012,0.3174807293405426,0.9482647238495151,-0.04645653736347824,-0.9989203122052308
738,-0.4870686233,0.06826630980000001,-0.9376380444,0.8649758101,-0.2479750013,-0.144199996,-0.19739999530000002,-0.7153999895,-10.97600005,3.969000012,0.29627558088563416,0.9551024972069124,-0.027880345237641158,-0.9996112676182827
739,-0.4886026978,0.06980038434,-0.7746230959999999,0.7152530551,-0.0442749995,0.03289999992,-0.127924999,0.08819999619999999,-12.08340039,4.566799908999999,0.27492335724288036,0.9614661448237809,-0.00929451899345636,-0.9999568050254373
740,-0.49128732090000005,0.07056742162,-0.7146365643000001,0.5473072529,-0.0442749995,0.03289999992,-0.127924999,0.08819999619999999,-12.08340039,4.566799908999999,0.2534346579436158,0.9673525076997539,0.009294518993455105,-0.9999568050254373
741,-0.49588954450000006,0.07095094025,-0.7725400925,0.4307643175,0.1286249983,0.02327500075,-0.002099999953,0.03920000186,-12.39699986,4.057200044,0.23182015026752842,0.9727586637650372,0.02788034523764079,-0.9996112676182827
742,-0.5020258427000001,0.07095094025,-0.8794099689,0.32520264390000003,0.21087500329999997,-0.001225000005,0.1804250073,0.009800000465,-11.554200199999999,1.979600069,0.210090563947278,0.9776819293309633,0.04645653736347788,-0.9989203122052308
743,-0.5081621408,0.07018390297999999,-0.8700167537000001,0.16778828199999998,0.21087500329999997,-0.001225000005,0.1804250073,0.009800000465,-11.554200199999999,1.979600069,0.1882566858421137,0.9821198604222112,0.06501667632443207,-0.9978841775475369
744,-0.5116138458,0.07095094025,-0.922169745,0.1837600768,0.21087500329999997,-0.001225000005,0.1804250073,0.009800000465,-11.554200199999999,1.979600069,0.16632935458313014,0.9860702539900286,0.0835543486211812,-0.9965032216839492
745,-0.5150654912,0.07095094025,-0.8533255458,0.1430908144,0.1713249993,0.0169750005,0.2241750073,-0.3332000181,-9.427600121000001,1.283799973,0.14431945519282666,0.989531149005854,0.10206314851780783,-0.994777921806989
746,-0.5227358341,0.07018390297999999,-1.028555989,0.060392007229999996,0.1713249993,0.0169750005,0.2241750073,-0.3332000181,-9.427600121000001,1.283799973,0.12223791368163442,0.9925008274347993,0.12053668025532233,-0.9927088740980541
747,-0.5307897329,0.07095094025,-1.182724953,0.08490136266000001,0.11375,0.07875,0.2007250047,0.07840000372,-9.143400276,0.1666000091,0.10009569162409844,0.994977815088504,0.1389685602617298,-0.9902967935214079
748,-0.5399941802,0.07133445889,-1.3653354640000002,0.08244975656,0.11375,0.07875,0.2007250047,0.07840000372,-9.143400276,0.1666000091,0.07790378071740355,0.9969608823569431,0.15735241935788555,-0.987542513577122
749,-0.5488151312,0.07133445889,-1.480708599,0.06703957915,0.07525000334,0.08837500334,0.2614499927,-0.2155999988,-9.751000047,-0.2939999934,0.05567319732494836,0.9984490448188217,0.17568190495838598,-0.9844469860130572
750,-0.5587866306,0.07133445889,-1.612923265,0.0495156832,0.07525000334,0.08837500334,0.2614499927,-0.2155999988,-9.751000047,-0.2939999934,0.033414977007674644,0.9994415637302546,0.19395068326671233,-0.9810112804959866
751,-0.5691416264,0.07133445889,-1.730936289,0.03747330606,0.053899998660000004,0.02449999958,0.3554249907,-0.5096000104999999,-9.584399855,-0.5978000067,0.011140169045865551,0.9999379463914896,0.2121524414638957,-0.9772365842419677
752,-0.5791131258,0.07133445889,-1.7940199380000001,0.0273279883,0.053899998660000004,0.02449999958,0.3554249907,-0.5096000104999999,-9.584399855,-0.5978000067,-0.01114016904586543,0.9999379463914896,0.23028088988991957,-0.9731242016060986
753,-0.5887010694,0.07171797752,-1.8220022919999999,0.03911430389,0.067900002,-0.02467499942,0.37992498399999997,0.303799995,-10.23120029,-0.5586000003,-0.0334149770076743,0.9994415637302546,0.24832976421713246,-0.9686755536317944
754,-0.5979055165999999,0.07171797752,-1.8193821909999999,0.031675647939999996,0.067900002,-0.02467499942,0.37992498399999997,0.303799995,-10.23120029,-0.5586000003,-0.055673197324948014,0.9984490448188217,0.26629282761489753,-0.9638921775597427
755,-0.6055758595,0.07210149616,-1.746456861,0.05227360502,0.05617500067000001,-0.08767500401,0.454649992,-0.09799999780999999,-9.104200196,-0.6075999901,-0.07790378071740321,0.9969608823569432,0.2841638729047457,-0.9587757262967057
756,-0.6120957136,0.07095094025,-1.6274269819999998,-0.01832440495,0.05617500067000001,-0.08767500401,0.454649992,-0.09799999780999999,-9.104200196,-0.6075999901,-0.10009569162409833,0.994977815088504,0.30193672470527727,-0.953327967844356
757,-0.6178484559,0.07133445889,-1.499876976,0.003214731347,0.050750001669999996,-0.132475003,0.41300000670000003,0.18619999399999998,-8.888600051000001,-0.5292000137,-0.12223791368163431,0.9925008274347993,0.3196052415660852,-0.9475507846883376
758,-0.6262859106,0.07171797752,-1.540896773,0.020138598980000002,0.050750001669999996,-0.132475003,0.41300000670000003,0.18619999399999998,-8.888600051000001,-0.5292000137,-0.14431945519282655,0.989531149005854,0.337163318089941,-0.9414461731477701
759,-0.6335727572,0.07095094025,-1.522602201,-0.02930935472,0.0442749995,-0.152774992,0.42472500799999996,0.1077999994,-9.26099993,-0.2939999934,-0.16632935458313003,0.9860702539900286,0.35460488704253557,-0.9350162426854148
760,-0.6370244025999999,0.07095094025,-1.2987297770000001,-0.025464897979999998,0.0442749995,-0.152774992,0.42472500799999996,0.1077999994,-9.26099993,-0.2939999934,-0.18825668584211358,0.9821198604222112,0.37192392144901976,-0.9282632151787462
761,-0.6420101522999999,0.07095094025,-1.197758913,-0.02278096229,0.029399999080000003,-0.173075006,0.508025012,-0.3136000149,-9.15320015,-0.117600001,-0.21009056394727765,0.9776819293309633,0.38911443667664497,-0.9211894241521758
762,-0.6450783014,0.07095094025,-1.0363991259999998,-0.02064306289,0.029399999080000003,-0.173075006,0.508025012,-0.3136000149,-9.15320015,-0.117600001,-0.23182015026752809,0.9727586637650372,0.406170492502765,-0.9137973139706974
763,-0.6462288499000001,0.07056742162,-0.7239319086,-0.02921673097,-0.02607500017,-0.225224998,0.471799984,-0.1469999967,-8.692600237999999,-0.3233999982,-0.25343465794361547,0.967352507699754,0.4230861951674908,-0.9060894389952329
764,-0.6466123462,0.07056742162,-0.620372057,-0.028356406839999997,-0.02607500017,-0.225224998,0.471799984,-0.1469999967,-8.692600237999999,-0.3233999982,-0.2749233572428801,0.961466144823781,0.43985569941029923,-0.8980684626999639
765,-0.6473793983,0.07018390297999999,-0.4928969145,-0.04366061836,-0.07944999932999999,-0.23275000329999998,0.37992498399999997,0.4115999945,-9.035599911,-0.1568000074,-0.2962755808856338,0.9551024972069124,0.45647321048986966,-0.8897371567519652
766,-0.6477629542,0.06941686571000001,-0.3982202411,-0.08110271393999999,-0.07944999932999999,-0.23275000329999998,0.37992498399999997,0.4115999945,-9.035599911,-0.1568000074,-0.3174807293405425,0.9482647238495151,0.47293298618647683,-0.8810984000534456
767,-0.6450783014,0.06903334707,-0.17186327280000002,-0.09094708413,-0.11777500029999999,-0.21682500600000001,0.37134998799999996,0.2939999934,-9.378600168,-0.09799999780999999,-0.33852827608637553,0.9409562191143575,0.48922933878622193,-0.8721551777469397
768,-0.6416266561,0.06826630980000001,0.05979982764,-0.1123354584,-0.11777500029999999,-0.21682500600000001,0.37134998799999996,0.2939999934,-9.378600168,-0.09799999780999999,-0.3594077728375127,0.9331806110416027,0.5053566370464411,-0.8629105801837822
769,-0.6397090554,0.06634871662000001,0.1400719732,-0.1869794279,-0.13702499869999998,-0.235899992,0.42577499869999996,0.1469999967,-9.780400252,0.048999998899999994,-0.38010885473061473,0.9249417595478001,0.5213093081415908,-0.8533678018562312
770,-0.6397090554,0.06136297807,0.09927095473,-0.4016236067,-0.13702499869999998,-0.235899992,0.42577499869999996,0.1469999967,-9.780400252,0.048999998899999994,-0.4006212454698796,0.9162437545097716,0.5370818395889531,-0.8435301402936033
771,-0.6397090554,0.05714427307,0.06598596275,-0.516407311,-0.165899992,-0.23065000530000002,0.5197500134,0.07840000372,-10.57419996,0.303799995,-0.4209347624283349,0.9070909137343408,0.5526687811534836,-0.833400994922806
772,-0.6397090554,0.0521585308,0.05475961789,-0.6529322863,-0.165899992,-0.23065000530000002,0.5197500134,0.07840000372,-10.57419996,0.303799995,-0.4410393217026313,0.8974877808149161,0.5680647467311556,-0.8229838658936566
773,-0.6412431002000001,0.04832334444,-0.028019448739999998,-0.684984684,-0.1562750053,-0.214550004,0.691600008,0.2548000053,-10.16259942,0.7252000093000001,-0.46092494311882765,0.8874391228759895,0.5832644162101418,-0.8122823528693963
774,-0.6416266561,0.04448815808,-0.04347762465,-0.7086096406,-0.1562750053,-0.214550004,0.691600008,0.2548000053,-10.16259942,0.7252000093000001,-0.48058175518668367,0.8769499282066716,0.5982625373091873,-0.8013001537828214
775,-0.640476048,0.03873537853,0.01716401055,-0.8299662470999999,-0.1252999973,-0.20387499329999997,0.7619500159999999,0.5096000104999999,-9.574599981,0.9898000345,-0.4999999999999998,0.8660254037844388,0.6130539273925525,-0.79004106355845
776,-0.6389420033,0.03758482262,0.08975429832999998,-0.6786672473,-0.1252999973,-0.20387499329999997,0.7619500159999999,0.5096000104999999,-9.574599981,0.9898000345,-0.5191700380805749,0.8546709726903181,0.6276334752608814,-0.7785089728011801
777,-0.6377914548,0.03605074808,0.1365718246,-0.5747578144,-0.109375,-0.19862500670000002,0.6840750027,0.7252000093000001,-8.937600005,1.1857999940000001,-0.5380823531633726,0.8428922714167971,0.6419961429173906,-0.7667078664518796
778,-0.6374078989,0.03528371081,0.12812998890000002,-0.45681062340000006,-0.109375,-0.19862500670000002,0.6840750027,0.7252000093000001,-8.937600005,1.1857999940000001,-0.5567275569205214,0.8306951470697945,0.6561369673087581,-0.754641822410384
779,-0.6374078989,0.03451667354,0.10184300689999999,-0.3736386597,-0.07735000134,-0.1676499987,0.551775012,1.048600008,-8.604400206000001,1.1172000009999998,-0.5750963936218104,0.818085654466076,0.6700510620401222,-0.7423150101263642
780,-0.6354903579,0.03221556172,0.1810920238,-0.39652866130000003,-0.07735000134,-0.1676499987,0.551775012,1.048600008,-8.604400206000001,1.1172000009999998,-0.5931797447293551,0.805070053127563,0.6837336190635818,-0.7297316891585679
781,-0.6335727572,0.0302979704,0.2329222113,-0.3640532494,-0.09432499766,-0.1762249947,0.4973500013,0.9408000082,-9.00620029,0.8623999953,-0.6109686334241652,0.7916548041740213,0.6971799103396334,-0.7168962077029148
782,-0.6289705038000001,0.02876389585,0.4116194546,-0.36336857079999996,-0.11777500029999999,-0.1804250073,0.4835249853,0.5292000137,-7.565600145,1.107399981,-0.6284542290623567,0.7778465671156741,0.7103852894709515,-0.7038130010899717
783,-0.6186155081,0.02838037722,0.7570093273999999,-0.2435779572,-0.11777500029999999,-0.1804250073,0.4835249853,0.5292000137,-7.565600145,1.107399981,-0.645627851558802,0.7636521965473324,0.7233451933079658,-0.6904865902523101
784,-0.6147803068,0.02838037722,0.8928552270000001,-0.20296159390000001,-0.11777500029999999,-0.1804250073,0.4835249853,0.5292000137,-7.565600145,1.107399981,-0.6624809756960441,0.7490787387456792,0.7360551435256671,-0.6769215801622884
785,-0.6078770161,0.02876389585,1.02669847,-0.13842558859999998,-0.09432499766,-0.1132249963,0.16974999670000002,0.9898000345,-6.95799979,1.2054000329999999,-0.6790052353563247,0.7341334281714067,0.7485107481711009,-0.6631226582407955
786,-0.5982890129,0.03106500767,1.257117748,0.011602924209999999,-0.09432499766,-0.1132249963,0.16974999670000002,0.9898000345,-6.95799979,1.2054000329999999,-0.6951924276746422,0.7188236838779294,0.7607077031810202,-0.6490945927374968
787,-0.5902351141,0.03144852445,1.3450957540000001,0.0314611271,-0.07087500333999999,-0.055650001170000005,0.010675000249999999,0.8036000222,-8.310399902,1.4895999519999998,-0.7110345171107606,0.703157105828468,0.7726417938691617,-0.6348422310831597
788,-0.5821812749,0.032599080350000004,1.411381721,0.07263098657,-0.07087500333999999,-0.055650001170000005,0.010675000249999999,0.8036000222,-8.310399902,1.4895999519999998,-0.726523639438163,0.6871414711233241,0.7843088963826435,-0.6203704982146071
789,-0.5737438202,0.03221556172,1.490379691,0.028355378660000003,-0.053899998660000004,0.00630000025,-0.022399999500000004,1.273999953,-9.40799979,1.470000058,-0.7416521056479576,0.6707847301392235,0.7957049791269684,-0.6056843948728998
790,-0.5614712238,0.03298259899,1.7428709269999998,0.053684495389999996,-0.053899998660000004,0.00630000025,-0.022399999500000004,1.273999953,-9.40799979,1.470000058,-0.7564124057658053,0.6540950025826423,0.8068261041591543,-0.5907889958753137
791,-0.5488151312,0.032599080350000004,1.9599544999999998,0.010452359909999999,-0.059150002,0.048999999169999996,-0.02012499958,0.39199999119999995,-9.163000023,1.4895999519999998,-0.7707972125799732,0.6370805734590748,0.8176684285484979,-0.5756894483617274
792,-0.5361590385,0.03528371081,2.106369495,0.1431591213,-0.059150002,0.048999999169999996,-0.02012499958,0.39199999119999995,-9.163000023,1.4895999519999998,-0.784799385278661,0.6197498889602449,0.8282282057045085,-0.560390970016015
793,-0.5242699385,0.0383518599,2.182945251,0.267762661,-0.06125,0.1076250017,-0.18567499399999998,0.882000035,-8.46720022,1.12700002,-0.7984119729947943,0.6021115522713045,0.8385017866715503,-0.5448988472630659
794,-0.5131478906,0.04065297171,2.192881823,0.3242572546,-0.06125,0.1076250017,-0.18567499399999998,0.882000035,-8.46720022,1.12700002,-0.811628218256531,0.5841743193000947,0.8484856213897496,-0.5292184334420433
795,-0.5016423464,0.04180352762,2.221620083,0.2909125984,-0.015399999919999999,0.2089499927,-0.3477250147,1.411199939,-9.721599841,1.362199986,-0.8244415603417601,0.5659470943305954,0.8581762599217237,-0.5133551469565315
796,-0.49128732090000005,0.04218704626,2.191790581,0.2287102789,-0.015399999919999999,0.2089499927,-0.3477250147,1.411199939,-9.721599841,1.362199986,-0.836845638534933,0.5474389256027199,0.8675703536447179,-0.4973144694021874
