,leftJointPosition,rightJointPosition,leftJointVelocity,rightJointVelocity,imuGyroX,imuGyroY,imuGyroZ,imuAccX,imuAccY,imuAccZ,leftGaitPhaseX,leftGaitPhaseY,rightGaitPhaseX,rightGaitPhaseY
153,-0.542678833,0.06826630980000001,2.122641087,0.5369593501,-0.04952499866000001,0.6198499679999999,-0.4172000027,-0.5096000104999999,-8.731799733999999,2.116800055,-0.9903847800577775,0.13834011504226715,1.0,-2.4492935982947064e-16
154,-0.5350084305,0.06826630980000001,1.9710290430000001,0.39980182049999996,-0.03465000033,0.6711249733,-0.46304998399999997,-2.116800055,-10.38799944,1.666000018,-0.9935599479631848,0.11330767760127046,1.0,0.0
155,-0.5254204869,0.06788279116,1.954173326,0.2807412446,-0.03465000033,0.6711249733,-0.46304998399999997,-2.116800055,-10.38799944,1.666000018,-0.996102511663983,0.08820309663897696,0.9997389970232808,0.022845958742949604
156,-0.5185171366,0.06788279116,1.794997573,0.2057404816,0.02414999992,0.6763750267,-0.455525012,-4.155199951,-12.73999953,0.6664000362,-0.9980108522981284,0.06304235635795559,0.9989561243382309,0.04567999175942338
157,-0.5096962452,0.06749927253,1.78839457,0.1381807625,0.02414999992,0.6763750267,-0.455525012,-4.155199951,-12.73999953,0.6664000362,-0.9992837548163315,0.03784147671767043,0.9976517906090526,0.06849017954824572
158,-0.5047104955,0.06788279116,1.584147334,0.13080579039999998,0.1713249993,0.6315750027,-0.3307499933,-5.027400112,-14.57259989,-0.7545999959,-0.9999204087556838,0.012616503234503999,0.995826676705718,0.09126461505559182
159,-0.5008752942,0.06558167933999999,1.374302387,-0.02851531655,0.1713249993,0.6315750027,-0.3307499933,-5.027400112,-14.57259989,-0.7545999959,-0.9999204087556838,-0.012616503234502864,0.9934817353485502,0.11399140989054062
160,-0.49704012270000003,0.06443112344,1.219488263,-0.09053792059,0.3517500067,0.5409249973,-0.258125,-3.988600051,-14.72940021,-2.528399867,-0.9992837548163315,-0.037841476717669735,0.9906181906108982,0.13665870053088575
161,-0.49397197369999996,0.06289704889,1.06102252,-0.1448058337,0.3517500067,0.5409249973,-0.258125,-3.988600051,-14.72940021,-2.528399867,-0.9980108522981285,-0.06304235635795401,0.9872375372801627,0.15925465451596454
162,-0.4909038246,0.06251353025,0.9316341281,-0.1178446189,0.4616499853,0.415975008,-0.20580000399999998,-3.322199869,-12.39699986,-3.322199869,-0.996102511663983,-0.08820309663897628,0.9833415400775093,0.18176747662327328
163,-0.49243789909999997,0.06213001534,0.6126869321,-0.11067777869999999,0.5244749879999999,0.393574996,-0.229424994,-2.067799956,-10.60360017,-2.165800008,-0.9935599479631849,-0.11330767760126977,0.9789322327366721,0.20418541502564316
164,-0.49243789909999997,0.06213001534,0.6126869321,-0.11067777869999999,0.5244749879999999,0.393574996,-0.229424994,-2.067799956,-10.60360017,-2.165800008,-0.9903847800577776,-0.13834011504226648,0.9740119169423335,0.22649676742576436
165,-0.49243789909999997,0.05867834762,0.3086774051,-0.2157870233,0.5244749879999999,0.393574996,-0.229424994,-2.067799956,-10.60360017,-2.165800008,-0.9865790295918212,-0.16328447069351226,0.9685831611286311,0.2486898871648548
166,-0.49013677240000003,0.05714427307,0.3877004683,-0.2586177588,0.42,0.40967499729999995,-0.1386000013,-2.940000117,-8.653400159,-1.76400007,-0.9821451197042028,-0.1881248623686333,0.9626487991384194,0.27075318930228526
167,-0.4874521494,0.05752779171,0.4424948096,-0.18110968170000002,0.42,0.40967499729999995,-0.1386000013,-2.940000117,-8.653400159,-1.76400007,-0.9770858734858122,-0.21284547407560092,0.9562119287439871,0.2926751566629874
168,-0.48361697789999997,0.05714427307,0.5401444435,-0.1485734582,0.2523500013,0.44169999600000004,-0.2528749967,-2.508800119,-9.319799757,-1.048600008,-0.9714045121820678,-0.23743056608684338,0.9492759100300016,0.314444345849488
169,-0.48361697789999997,0.05599371716,0.4070504308,-0.1617487967,0.2523500013,0.44169999600000004,-0.2528749967,-2.508800119,-9.319799757,-1.048600008,-0.9651046531419334,-0.26186448496080633,0.9418443636395247,0.3360493932154301
170,-0.48169937729999995,0.055610198529999995,0.4092594683,-0.1434376091,0.1020249987,0.4576249933,-0.327424984,-3.126200056,-12.69099958,0.7252000093000001,-0.958190307514737,-0.28613167350856794,0.9339211688840157,0.3574790207974644
171,-0.48169937729999995,0.055610198529999995,0.310326755,-0.1055359542,0.1020249987,0.4576249933,-0.327424984,-3.126200056,-12.69099958,0.7252000093000001,-0.9506658776962521,-0.31021668069917635,0.9255104617183069,0.3787220422024131
172,-0.4797817767,0.05522667989,0.3268876374,-0.0851752609,-0.0005249999883000001,0.4000500107,-0.11935000300000001,-4.409999883,-14.30800037,0.6467999965,-0.942536154525673,-0.3341041714973889,0.9166166325816117,0.3997673684466338
173,-0.4774806798,0.054076123979999995,0.3680682182,-0.11990150810000001,-0.0005249999883000001,0.4000500107,-0.11935000300000001,-4.409999883,-14.30800037,0.6467999965,-0.9338063142352645,-0.3577789366275639,0.9072443241056882,0.42060401374453493
174,-0.47249493,0.054076123979999995,0.5321894884,-0.08574318141000001,-0.03359999925,0.35524998659999996,-0.0180249995,-3.8611999389999996,-13.88660054,1.567999965,-0.9244819151546323,-0.38122590225747155,0.8973984286913584,0.4412211012432213
175,-0.4663586318,0.0521585308,0.7119809985,-0.1642552763,-0.03359999925,0.35524998659999996,-0.0180249995,-3.8611999389999996,-13.88660054,1.567999965,-0.9145688941717074,-0.4044301395958766,0.8870840859546454,0.4616078687002761
176,-0.45868825909999994,0.05139149353,0.9232046604,-0.1660777032,-0.0409499985,0.371174984,-0.084174999,-4.615799862,-12.42640007,1.979600069,-0.9040735629527026,-0.4273768743977683,0.8763066800438636,0.4817536741017153
177,-0.45178490880000005,0.04870686308,1.0378561020000001,-0.2647400498,-0.0409499985,0.371174984,-0.084174999,-4.615799862,-12.42640007,1.979600069,-0.893002603923446,-0.4500514963711875,0.8650718368290611,0.5016480012171826
178,-0.44564861060000005,0.04563871399,1.078984022,-0.3589754105,0.014524999709999998,0.4341749907,-0.1867250013,-4.223799944,-10.93680055,0.5879999869,-0.881363066014649,-0.47243956847967067,0.8533854209652818,0.521280465089484
179,-0.43759474159999995,0.04065297171,1.204901576,-0.5290398598,0.014524999709999998,0.4341749907,-0.1867250013,-4.223799944,-10.93680055,0.5879999869,-0.8691623601738203,-0.4945268361343742,0.8412535328311812,0.5406408174555976
180,-0.43030786509999996,0.032599080350000004,1.2603513000000002,-0.8167997599,0.019774999919999998,0.468300004,-0.1961750007,-4.204199903999999,-10.86819968,-1.009400001,-0.8564082546466805,-0.51629923627004,0.8286825053445915,0.5597189520963275
181,-0.4222539961,0.02262759767,1.349268198,-1.1224281790000001,0.019774999919999998,0.468300004,-0.1961750007,-4.204199903999999,-10.86819968,-1.009400001,-0.8431088700310848,-0.5377429062990113,0.8156789006567018,0.5785049101118108
182,-0.4153506458,0.01112203952,1.3633164169999998,-1.437293291,0.003849999979,0.490700016,-0.05110000134,-3.8611999389999996,-11.00540025,-1.4504000190000002,-0.8292726741066008,-0.5588441929376089,0.8022495067265751,0.5969888851201225
183,-0.40806379909999996,-0.0019175930650000002,1.380732536,-1.743487358,0.01014999971,0.5258749866,0.07157500267000001,-3.2340001289999996,-10.66240058,-1.303400013,-0.8149084764430343,-0.5795896608992369,0.7884013337777942,0.615161228376265
184,-0.40806379909999996,-0.0019175930650000002,1.380732536,-1.743487358,0.01014999971,0.5258749866,0.07157500267000001,-3.2340001289999996,-10.66240058,-1.303400013,-0.8000254227913347,-0.5999661014486953,0.7741416106390825,0.6330124538088704
185,-0.3946406543,-0.035667229439999996,1.216197968,-2.300287962,0.01014999971,0.5258749866,0.07157500267000001,-3.2340001289999996,-10.66240058,-1.303400013,-0.7846329892604547,-0.6199605408122385,0.7594777809708126,0.650533242971987
186,-0.3888878822,-0.04717278853,1.25612545,-2.4300332069999997,0.014524999709999998,0.520625,0.18252500530000001,-2.518599993,-10.28020024,-1.567999965,-0.7687409762838666,-0.63956024843804,0.744417499379372,0.6677144499093626
187,-0.38236805799999996,-0.05676075444,1.3429388999999998,-2.426004887,0.014524999709999998,0.520625,0.18252500530000001,-2.518599993,-10.28020024,-1.567999965,-0.7523595023795815,-0.6587527451017935,0.7289686274214116,0.6845471059286886
188,-0.37853285670000003,-0.0736355707,1.204891801,-2.538235426,0.008050000146,0.502424984,0.13125,-2.45,-9.535399902,-1.773799944,-0.7354989977076425,-0.6775258108522901,0.7131392295000673,0.701022424283311
189,-0.3739306331,-0.08284001797,1.127875924,-2.492070436,0.008050000146,0.502424984,0.13125,-2.45,-9.535399902,-1.773799944,-0.7181701974291931,-0.6958674927919207,0.6969375686552935,0.7171318047589634
190,-0.368177861,-0.09703020751000001,1.121636868,-2.4525299069999997,-0.050575001839999995,0.45342499729999997,0.1015000033,-2.067799956,-9.829400206,-1.9893999430000002,-0.7003841348713513,-0.7137661126871384,0.6803721022505067,0.7328668381631318
191,-0.3624250889,-0.1054676175,1.1253649,-2.376878262,-0.050575001839999995,0.45342499729999997,0.1015000033,-2.067799956,-9.829400206,-1.9893999430000002,-0.6821521345022382,-0.7312102744040461,0.6634514775577919,0.7482193107147013
192,-0.3566723168,-0.1188907698,1.130645037,-2.336839199,-0.09974999666,0.4011000013,0.1174250007,-2.126599929,-9.564800107,-1.92079995,-0.6634858047206387,-0.7481888711643648,0.6461845272439742,0.7631812083316003
193,-0.3505360186,-0.1284787357,1.145011306,-2.239132643,-0.09974999666,0.4011000013,0.1174250007,-2.126599929,-9.564800107,-1.92079995,-0.6443970304648773,-0.7646910926171744,0.6285802647599155,0.7777447208141979
194,-0.3428656459,-0.1388337314,1.25232482,-2.212666273,-0.13597499970000002,0.35839999200000006,0.12810000300000002,-2.097200015,-9.035599911,-1.6561999980000002,-0.6248979656456276,-0.7807064317219091,0.6106478796354382,0.791902245922275
195,-0.3363458216,-0.14612059300000002,1.271464825,-2.024919271,-0.13597499970000002,0.35839999200000006,0.12810000300000002,-2.097200015,-9.035599911,-1.6561999980000002,-0.6050010254074568,-0.7962246914382434,0.5923967326823367,0.8056463933434395
196,-0.3286754489,-0.1549415141,1.355379343,-1.9490123990000001,-0.1604750013,0.32637499329999997,0.09939999699999999,-2.107000035,-8.839600098,-1.352399966,-0.5847188782240473,-0.8112359912185921,0.5738363511079774,0.8189699885509127
197,-0.3233061731,-0.1641459614,1.285160303,-1.920688987,-0.1604750013,0.32637499329999997,0.09939999699999999,-2.107000035,-8.839600098,-1.352399966,-0.5640644378321238,-0.8257307732991003,0.5549764235420405,0.8318660765486748
198,-0.3152523041,-0.17258337140000002,1.3721712830000001,-1.8615832330000002,-0.17114999530000002,0.3029249907,0.08224999666,-2.107000035,-8.653400159,-0.9016000018000001,-0.5430508550092121,-0.839699808785118,0.5358267949789967,0.8443279255020151
199,-0.3094995022,-0.17987023289999998,1.320201159,-1.7612161640000001,-0.17114999530000002,0.3029249907,0.08224999666,-2.107000035,-8.653400159,-0.9016000018000001,-0.5216915092004855,-0.8531342035272761,0.5163974616389619,0.8563490302515889
200,-0.30029505489999997,-0.1883076429,1.458446145,-1.747717142,-0.1690499973,0.280525012,0.06405000150000001,-1.8914000359999998,-8.526000047,-0.9603999749,-0.5000000000000004,-0.8660254037844384,0.4966985657496113,0.8679231157091503
201,-0.295309335,-0.19521097839999998,1.3436757330000002,-1.6500433680000002,-0.1690499973,0.280525012,0.06405000150000001,-1.8914000359999998,-8.526000047,-0.9603999749,-0.4779901384917836,-0.8783652016699008,0.476740390251875,0.8790441401331847
202,-0.28878951070000003,-0.2028813362,1.322473884,-1.617281914,-0.157324996,0.251650002,0.051275001169999994,-2.048200062,-8.565200126,-0.9211999685,-0.45567593845624166,-0.8901457403773966,0.45653335343218243,0.8897062982827344
203,-0.2830367386,-0.20940116050000002,1.260982037,-1.52963388,-0.1520749927,0.2313500047,0.07577499866000001,-2.067799956,-8.437800014,-1.293599993,-0.4330716074475291,-0.9013595191835572,0.4360880034840553,0.8999040244477688
204,-0.2830367386,-0.20940116050000002,1.260982037,-1.52963388,-0.1520749927,0.2313500047,0.07577499866000001,-2.067799956,-8.437800014,-1.293599993,-0.4101915377475278,-0.9119993982236603,0.41541501300188644,0.9096319953545183
205,-0.2676959932,-0.2247419059,1.2491345409999999,-1.383626342,-0.1520749927,0.2313500047,0.07577499866000001,-2.067799956,-8.437800014,-1.293599993,-0.38705029720221723,-0.9220586030376136,0.3945251734097829,0.9188851329442548
206,-0.2646278441,-0.2281935662,1.209992051,-1.270478725,-0.1434999967,0.20370000600000002,0.07682499766,-1.813000023,-8.526000047,-1.332800072,-0.3636626199462617,-0.9315307288832831,0.3734293893283781,0.9276586070240682
207,-0.2592585683,-0.2324122787,1.160638928,-1.220757842,-0.1434999967,0.20370000600000002,0.07682499766,-1.813000023,-8.526000047,-1.332800072,-0.3400433970217143,-0.9404097448144254,0.35213867288255507,0.9359478377882567
208,-0.2538893223,-0.236247465,1.136579156,-1.100031257,-0.1380749977,0.18339999199999998,0.091875,-1.8914000359999998,-8.770999813,-1.5190000119999998,-0.31620766689682483,-0.9486899975206161,0.3306641379530514,0.943748498209012
209,-0.2477530241,-0.2416167259,1.171311975,-1.0396702290000002,-0.1380749977,0.18339999199999998,0.091875,-1.8914000359999998,-8.770999813,-1.5190000119999998,-0.29217060589097593,-0.9563662149267403,0.30901699437494745,0.9510565162951535
210,-0.244684875,-0.2443013489,1.0318800209999999,-0.9122380018,-0.140175004,0.17919999600000003,0.1111249983,-2.146199968,-8.898399925,-1.597400025,-0.26794751851185383,-0.9634335095497456,0.2872085420860664,0.9578680772177326
211,-0.2404661626,-0.24621894960000001,0.9748817086,-0.8214944601,-0.140175004,0.17919999600000003,0.1111249983,-2.146199968,-8.898399925,-1.597400025,-0.24355382771099207,-0.9698873816105272,0.2652501652283378,0.9641796253013956
212,-0.2366309762,-0.2489035726,0.9131551385,-0.7075869441,-0.144550004,0.1802500033,0.12180000070000001,-2.0089999819999997,-8.878800177999999,-1.773799944,-0.21900506506391426,-0.9757237218989557,0.24315332620520966,0.969987865880467
213,-0.23202875260000003,-0.2504376471,0.9051998854000001,-0.5974178314,-0.144550004,0.1802500033,0.12180000070000001,-2.0089999819999997,-8.878800177999999,-1.773799944,-0.1943168608810983,-0.9809388143902329,0.2209295596982041,0.9752897670187859
214,-0.2270430177,-0.2508211732,0.8794181943000001,-0.46280887719999997,-0.1328250027,0.1888249993,0.1259999967,-1.92079995,-8.790600145,-1.411199939,-0.16950493425609756,-0.985529338610899,0.19859046664574553,0.9800825610923934
215,-0.22359134260000002,-0.2504376471,0.8791960478,-0.3259390593,-0.1328250027,0.1888249993,0.1259999967,-1.92079995,-8.790600145,-1.411199939,-0.144585083057111,-0.9894923717529955,0.17614770818740155,0.9843637462342495
216,-0.219372645,-0.250054121,0.8834716081999999,-0.22842289510000002,-0.10185000300000001,0.207900002,0.07367500067,-1.7933999840000001,-8.231999743,-0.9211999685,-0.11957317386841547,-0.9928253905350294,0.15361299957669944,0.9881310876402224
217,-0.2166880071,-0.2489035726,0.7859100698999999,-0.1052501127,-0.10185000300000001,0.207900002,0.07367500067,-1.7933999840000001,-8.231999743,-0.9211999685,-0.09448513188803213,-0.9955262728085589,0.13099810406569276,0.9913826187356696
218,-0.21246930960000002,-0.250054121,0.8060033917,-0.1329857409,-0.07944999932999999,0.1951249933,0.021350000499999997,-1.9600000290000001,-8.418200266,-0.8917999819,-0.069336930788082,-0.9975932989093745,0.10831482676447465,0.9941166422020012
219,-0.20940116050000002,-0.2492870986,0.7505776881999999,-0.06267082691,-0.07944999932999999,0.1951249933,0.021350000499999997,-1.9600000290000001,-8.418200266,-0.8917999819,-0.044144582544277784,-0.9990251527524177,0.08557500847883984,0.9963317308626913
220,-0.2036483735,-0.2496706098,0.8011934756999999,-0.06865497678999999,-0.03674999833,0.2026499987,0.042700000999999994,-2.2147999609999998,-8.271199822,-1.1857999940000001,-0.018924127241019866,-0.9998209226697378,0.06279051952931351,0.9980267284282716
221,-0.2009637505,-0.2492870986,0.7762606740000001,-0.03188325465,-0.03674999833,0.2026499987,0.042700000999999994,-2.2147999609999998,-8.271199822,-1.1857999940000001,0.006308377141396059,-0.9999801019909555,0.039973253554773415,0.9992007500999215
222,-0.1959780157,-0.2489035726,0.8452008963,-0.002330835909,0.01242499962,0.22067499399999999,0.01400000021,-1.842399937,-8.565200126,-0.9114000216,0.031536864950970855,-0.9995025893658627,0.017135121303899187,0.9998531830313392
223,-0.1948274523,-0.2489035726,0.6742915510999999,-0.002017423511,0.047600000499999996,0.216474998,-0.007349999771,-1.6953999309999999,-8.614200079,-0.7350000292000001,0.05674527309307318,-0.9983886888289513,-0.005711955582308342,0.9999836866486501
224,-0.1948274523,-0.2489035726,0.6742915510999999,-0.002017423511,0.047600000499999996,0.216474998,-0.007349999771,-1.6953999309999999,-8.614200079,-0.7350000292000001,0.08191755125789221,-0.9966391096058345,-0.02855605079369613,0.9995921928281892
225,-0.1867735684,-0.24621894960000001,0.6450766325,0.1135363355,0.047600000499999996,0.216474998,-0.007349999771,-1.6953999309999999,-8.614200079,-0.7350000292000001,0.10703767213973688,-0.9942549656616788,-0.05138523957656292,0.9986789059320614
226,-0.1840889305,-0.24506838620000002,0.6449979544,0.15431392189999998,0.08277500033,0.1982749987,-0.01487500042,-1.7933999840000001,-8.780800271,-1.1172000009999998,0.13208964164170153,-0.9912377749919374,-0.07418760495845211,0.9972443027014637
227,-0.1806372702,-0.2439178377,0.6904351711,0.182557255,0.08277500033,0.1982749987,-0.01487500042,-1.7933999840000001,-8.780800271,-1.1172000009999998,0.1570575090591787,-0.9875894586558354,-0.09695124396888143,0.9952891320078233
228,-0.1783361584,-0.2412331998,0.6381546259,0.2746629417,0.11042499900000001,0.170625,-0.050049998160000005,-1.538600051,-8.918000257000001,-1.21519998,0.18192537723574356,-0.9833123395532227,-0.11966427385276573,0.9928144144618823
229,-0.17680208379999998,-0.2400826514,0.5350065231000001,0.263858676,0.11042499900000001,0.170625,-0.050049998160000005,-1.538600051,-8.918000257000001,-1.21519998,0.20667741268495224,-0.9784091409455729,-0.142314838273285,0.9898214418809328
230,-0.1718163341,-0.2381650507,0.6031312346,0.2802862823,0.114799999,0.12372500300000001,-0.075600003,-1.607200044,-9.035599911,-1.597400025,0.23129785567159206,-0.9728829847220699,-0.16489111350096322,0.9863117766144803
231,-0.16951522230000002,-0.2385485768,0.5527344346,0.1861517578,0.114799999,0.12372500300000001,-0.075600003,-1.607200044,-9.035599911,-1.597400025,0.2557710302459795,-0.9667373894118869,-0.18738131458572482,0.9822872507286886
232,-0.1664470732,-0.2381650507,0.5956107974,0.1672166884,0.11689999699999999,0.07875,-0.1076250017,-1.842399937,-9.300200009,-1.587600005,0.2800813542249062,-0.959976267943923,-0.20977370150870914,0.9777499650500301
233,-0.1629954129,-0.2373980135,0.6223519444,0.1677509844,0.11689999699999999,0.07875,-0.1076250017,-1.842399937,-9.300200009,-1.587600005,0.30421334911289316,-0.9526039251554221,-0.23205658531063156,0.9727022880686411
234,-0.1595437378,-0.2373980135,0.6054407954,0.1284256428,0.09345000267,0.01155000046,-0.10657500269999999,-2.0089999819999997,-9.290400136,-2.018800002,0.32815164995741214,-0.9446250550510653,-0.2542183341934868,0.9671468547019572
235,-0.1564755887,-0.2377815396,0.6467906237,0.08102721721,0.09345000267,0.01155000046,-0.10657500269999999,-2.0089999819999997,-9.290400136,-2.018800002,0.35188101513183245,-0.936044737814273,-0.27624737959242024,0.9610865649192696
236,-0.1526404023,-0.23893208800000001,0.6577065586999999,-0.00961227715,0.1041249967,-0.03639999866,-0.1471749973,-1.9893999430000002,-9.133599817999999,-1.6267999380000002,0.375386336039823,-0.9268684365726331,-0.29813222221458424,0.9545245822279245
237,-0.14918874199999999,-0.2373980135,0.6989798545999999,0.07512520253999999,0.1041249967,-0.03639999866,-0.1471749973,-1.9893999430000002,-9.133599817999999,-1.6267999380000002,0.3986526467350754,-0.9171019939194981,-0.31986143804184086,0.947464332021953
238,-0.1465041041,-0.2393156141,0.6151768565,-0.04310669005,0.09659999967,-0.09834999800000001,-0.222949996,-2.028600022,-8.477000093,-1.23480002,0.4216651334501834,-0.9067516281939829,-0.34142368429416425,0.9399094997939955
239,-0.1411348432,-0.2416167259,0.7395168543,-0.1535429209,0.09659999967,-0.09834999800000001,-0.222949996,-2.028600022,-8.477000093,-1.23480002,0.444409144028643,-0.8958239295217163,-0.36280770535064083,0.9318640292114524
240,-0.1380666941,-0.2435343117,0.7077146173000001,-0.2112683654,0.109375,-0.1452500033,-0.293300004,-1.8521999569999998,-8.14379971,-1.352399966,0.4668701972539456,-0.8843258556188788,-0.38400233862497146,0.9233321200578656
241,-0.1349985451,-0.2466024607,0.723222971,-0.3107714057,0.109375,-0.1452500033,-0.293300004,-1.8521999569999998,-8.14379971,-1.352399966,0.48903399206983267,-0.8722647273621942,-0.4049965203924053,0.9143182260406079
242,-0.129245773,-0.2477530241,0.7855107784,-0.2907731235,0.1190000033,-0.19967499730000002,-0.4011000013,-1.313200033,-7.810599911000001,-0.48019998740000003,0.5108864166858497,-0.8596482241276907,-0.42577929156507277,0.9048270524660195
243,-0.1254105866,-0.24813653530000002,0.7692202926,-0.23567920920000002,0.1244250023,-0.24552499530000002,-0.576099968,-0.6761999831000001,-6.605200243,-0.2841999918,0.5324135575623845,-0.846484378901209,-0.4463398034126918,0.894863553783212
244,-0.1254105866,-0.24813653530000002,0.7692202926,-0.23567920920000002,0.1244250023,-0.24552499530000002,-0.576099968,-0.6761999831000001,-6.605200243,-0.2841999918,0.553601708269484,-0.8327815731637613,-0.4666673232256737,0.8844329309978143
245,-0.1108368784,-0.2508211732,0.9888990521,-0.20652899149999998,0.1244250023,-0.24552499530000002,-0.576099968,-0.6761999831000001,-6.605200243,-0.2841999918,0.5744373782137983,-0.8185485315550066,-0.4867512399176562,0.873540628957019
246,-0.10585113609999999,-0.2546563447,1.097453475,-0.35425481200000003,0.09134999632999999,-0.328825016,-0.8055249785999999,-0.5683999836,-6.899199962999999,-1.146599987,0.5949073012281089,-0.8037943163182284,-0.5065810695645582,0.8621923335073377
247,-0.0989478007,-0.2596420944,1.2360596659999998,-0.5464236736,0.09134999632999999,-0.328825016,-0.8055249785999999,-0.5683999836,-6.899199962999999,-1.146599987,0.6149984440179523,-0.7885283215303668,-0.5261464608772483,0.8503939685265567
248,-0.08897631615,-0.2657783926,1.374623895,-0.7239007354000001,0.05827499866,-0.3832499933,-0.9560250187,-0.7055999695999999,-7.261799967000001,-2.234400001,0.6346980144599873,-0.772760267120761,-0.5454372006049799,0.8381516928314366
249,-0.08053890616,-0.2734487653,1.4570150380000002,-0.942625165,0.05827499866,-0.3832499933,-0.9560250187,-0.7055999695999999,-7.261799967000001,-2.234400001,0.6539934697467891,-0.7565001926824313,-0.564443218866769,0.8254718969627741
250,-0.07018390297999999,-0.2818861902,1.615682125,-1.14560473,-0.005775000229,-0.41300000670000003,-1.0169250109999999,-0.9603999749,-8.14379971,-2.508800119,0.6728725243729184,-0.7397584510798212,-0.5831545944079319,0.8123611998495006
251,-0.05982890352999999,-0.2903235853,1.735123992,-1.2894244190000002,-0.005775000229,-0.41300000670000003,-1.0169250109999999,-0.9603999749,-8.14379971,-2.508800119,0.69132315795716,-0.7225457018570793,-0.6015615597790387,0.7988264453535636
252,-0.05062445626,-0.30106210710000003,1.753916144,-1.437935591,-0.051625000830000004,-0.4173750067,-1.094800024,-0.7742000356000001,-8.986599958,-2.744000012,0.7093336228959526,-0.7048729044510809,-0.6196545064345811,0.784874698697388
253,-0.04065297171,-0.3091160059,1.80025816,-1.5657055380000002,-0.051625000830000004,-0.4173750067,-1.094800024,-0.7742000356000001,-8.986599958,-2.744000012,0.7268924518431434,-0.6867513112135014,-0.6374239897486896,0.7705132427757893
254,-0.0302979704,-0.3194710016,1.863481641,-1.620556355,-0.04952499866000001,-0.450449996,-1.040375013,-0.8525999755,-10.09399972,-2.528399867,0.7439884650112983,-0.6681924602463964,-0.654860733945285,0.7557495743542584
255,-0.02071000449,-0.3263743222,1.8757728340000002,-1.563940406,-0.04952499866000001,-0.450449996,-1.040375013,-0.8525999755,-10.09399972,-2.528399867,0.7606107772899285,-0.649208168055833,-0.6719556369400879,0.740591400155606
256,-0.01188907679,-0.3336611986,1.8402813669999998,-1.54248476,-0.06125,-0.49,-1.0125500109999999,-0.6272000298,-10.47620006,-1.8228000430000002,0.7767488051760847,-0.6298105220282723,-0.6886997750919615,0.7250466328370071
257,-0.003451667493,-0.3397974968,1.80266726,-1.47179544,-0.06125,-0.49,-1.0125500109999999,-0.6272000298,-10.47620006,-1.8228000430000002,0.7923922735129294,-0.6100118727344663,-0.7050844078611056,0.7091233868595465
258,0.003835186129,-0.34631729130000005,1.719329357,-1.436267257,-0.06125,-0.5486250067,-0.9625,-0.05880000051,-10.90740035,-2.0089999819999997,0.8075312220319693,-0.5898248260658027,-0.7211009823716692,0.6928299742524233
259,0.011505558159999998,-0.3520700932,1.6816077230000002,-1.365037799,-0.06125,-0.5486250067,-0.9625,-0.05880000051,-10.90740035,-2.0089999819999997,0.8221560116948097,-0.5692622352080664,-0.736741137876405,0.6761749002740193
260,0.01687481813,-0.35743933920000004,1.519966245,-1.2875878809999999,-0.03674999833,-0.622300024,-0.8919750214,0.03920000186,-11.66200056,-1.9991999630000001,0.8362573308303713,-0.5483371924577639,-0.7519967101210258,0.6591668589721073
261,0.02377815358,-0.3616580367,1.481375575,-1.172284365,-0.03674999833,-0.622300024,-0.8919750214,0.03920000186,-11.66200056,-1.9991999630000001,0.8498262010636769,-0.5270630208861925,-0.7668597356059978,0.6418147286455018
262,0.029147414489999995,-0.36626026030000003,1.381465435,-1.0989240409999999,-0.01014999971,-0.677774992,-0.7692999840000001,0.6664000362,-11.43660054,-1.538600051,0.8628539830324227,-0.5054532658565812,-0.7813224557435308,0.6241275672095397
263,0.03605074808,-0.37047898770000004,1.3918991090000001,-1.021948457,-0.008924999833,-0.7192499733,-0.6903750134000001,0.5586000003,-12.06379948,-1.440599999,0.8753323818876988,-0.48352168639969795,-0.795377320907611,0.6061146074677883
264,0.03605074808,-0.37047898770000004,1.3918991090000001,-1.021948457,-0.008924999833,-0.7192499733,-0.6903750134000001,0.5586000003,-12.06379948,-1.440599999,0.8872534525753611,-0.4612822464534066,-0.8090169943749473,0.5877852522924732
265,0.04602223262,-0.3835186064,1.11998558,-1.038142443,-0.008924999833,-0.7192499733,-0.6903750134000001,0.5586000003,-12.06379948,-1.440599999,0.8986096048946816,-0.4387491059717663,-0.8222343561547871,0.5691490697161181
266,0.04947390035,-0.3888878822,1.122570872,-1.110405803,-0.002625000104,-0.7192499733,-0.5526499987,0.8623999953,-12.02459998,-1.342599946,0.9093936083310649,-0.4159366119093219,-0.8350225067055925,0.5502157879369772
267,0.054076123979999995,-0.39157250520000003,1.064513445,-1.0199961659999999,-0.002625000104,-0.7192499733,-0.5526499987,0.8623999953,-12.02459998,-1.342599946,0.919598596659749,-0.3928592890863348,-0.8473747705366425,0.5309952902408576
268,0.05944538489,-0.39655822520000006,1.063318253,-0.9464999437,0.002799999937,-0.6936999893000001,-0.4255999947,0.7839999825,-11.76979976,-0.9898000345,0.929218072317565,-0.36953183094075726,-0.8592846996926791,0.5114976098419839
269,0.06443112344,-0.3988593519,1.048316717,-0.8561779261,0.002799999937,-0.6936999893000001,-0.4255999947,0.7839999825,-11.76979976,-0.9898000345,0.9382459105399628,-0.3459690901728594,-0.870746077119777,0.4917329246456041
270,0.07056742162,-0.4023110271,1.096743464,-0.7692554593,-0.007874999791,-0.6403250027,-0.3221749973,0.8036000222,-11.74039955,-0.3332000181,0.9466763632606786,-0.32218606928844024,-0.8817529199106858,0.47171155193505676
271,0.07478612661,-0.4026945233,1.037211895,-0.6293102503,-0.007874999791,-0.6403250027,-0.3221749973,0.8036000222,-11.74039955,-0.3332000181,0.9545040627715551,-0.29819791104666576,-0.8922994824279393,0.451443942986094
272,0.08015538752000001,-0.4038451016,1.052935243,-0.5039747953,-0.029224999249999998,-0.561400032,-0.2399250007,0.8623999953,-11.93640053,0.01960000093,0.9617240251401846,-0.2740198888186067,-0.9023802593031154,0.4309406776112488
273,0.08360705525,-0.40307804939999997,0.9513898492,-0.3521440625,-0.029224999249999998,-0.561400032,-0.2399250007,0.8623999953,-11.93640053,0.01960000093,0.9683316533832038,-0.24966739686260772,-0.9119899883106699,0.4102124586371118
274,0.08974335343,-0.3996263742,1.014339447,-0.05295209587,-0.05809999882999999,-0.47705000399999997,-0.05862499833,0.8231999889,-12.46559956,0.3626000047,0.9743227403932131,-0.2251559405226952,-0.9211236531148501,0.3892701063173916
275,0.09357853979,-0.39694175119999997,0.9418063164,0.11312958599999999,-0.05809999882999999,-0.47705000399999997,-0.05862499833,0.8231999889,-12.46559956,0.3626000047,0.9796934716174618,-0.2005011263562516,-0.9297764858882513,0.36812455268467814
276,0.09818076342,-0.3946406543,0.9252659678,0.205701828,-0.02817500025,-0.350175004,0.050224998,0.48019998740000003,-11.15240011,0.2548000053,0.9844404274865906,-0.17571865219725194,-0.9379439698006521,0.346786835843856
277,0.10278298710000001,-0.39118897909999994,0.9178205729000001,0.33796203140000003,-0.02817500025,-0.350175004,0.050224998,0.48019998740000003,-11.15240011,0.2548000053,0.9885605855918885,-0.15082429716137413,-0.9456218413768248,0.32526809421015007
278,0.103933543,-0.38428565859999997,0.7260441184,0.6130132675,0.01872500092,-0.280700016,0.1931999993,0.5879999869,-11.093599699999999,0.24500000370000002,0.9920513226096731,-0.12583391159937118,-0.9528060927220978,0.30357956069480213
279,0.1073852107,-0.37853285670000003,0.7013667226000001,0.7542002797,0.01872500092,-0.280700016,0.1931999993,0.5879999869,-11.093599699999999,0.24500000370000002,0.9949104159715741,-0.10076340700506912,-0.9594929736144973,0.28173255684143006
280,0.1119874343,-0.37047898770000004,0.7615075707,0.9757606387000001,0.15855000730000002,-0.19967499730000002,0.2786000013,0.07840000372,-9.868599701,0.17639999239999998,0.997136045279652,-0.07562874588445698,-0.9656789934623878,0.2597384869161085
281,0.11352150890000001,-0.3624250889,0.6419403553,1.146187425,0.15855000730000002,-0.19967499730000002,0.2786000013,0.07840000372,-9.868599701,0.17639999239999998,0.9987267934654538,-0.050445931592279246,-0.9713609231265805,0.2376088319542801
282,0.1139050275,-0.3536041677,0.48487582799999995,1.315945745,0.2726499987,-0.1623999953,0.251825006,0.6467999965,-8.918000257000001,0.01960000093,0.9996816476922675,-0.02523099814262529,-0.9765357966059637,0.215355143767582
283,0.11543910210000001,-0.34516674280000004,0.4510372877,1.418282628,0.3655749893,-0.1590750027,0.31272501469999997,0.43119999770000006,-9.290400136,-0.6174000099,1.0,-2.4492935982947064e-16,-0.9812009125857728,0.19298903891373365
284,0.11543910210000001,-0.34516674280000004,0.4510372877,1.418282628,0.3655749893,-0.1590750027,0.31272501469999997,0.43119999770000006,-9.290400136,-0.6174000099,1.0,0.0,-0.985353835847693,0.17052219263262397
285,0.11237095300000001,-0.32062155010000004,0.1277227849,1.7550517319999999,0.3655749893,-0.1590750027,0.31272501469999997,0.43119999770000006,-9.290400136,-0.6174000099,0.999746427017133,0.02251847389314609,-0.9889923985410572,0.14796633275176668
286,0.1139050275,-0.3129511774,0.1872299761,1.7879179719999998,0.415625,-0.17184999469999998,0.43977498530000003,0.43119999770000006,-9.094399738,-1.323000053,0.9989858366670474,0.04502552763310278,-0.9921147013144778,0.12533323356430454
287,0.1139050275,-0.30374673010000003,0.1555665433,1.895141125,0.415625,-0.17184999469999998,0.43977498530000003,0.43119999770000006,-9.094399738,-1.323000053,0.9977186146800707,0.0675097468583653,-0.9947191143073184,0.10263470968275769
288,0.1139050275,-0.2933917344,0.1087006256,1.939849138,0.390075016,-0.23169999600000002,0.3927000093,0.4018000111,-8.477000093,-1.362199986,0.9959454037227214,0.08995972878786089,-0.9968042780004915,0.0798826098717279
289,0.1139050275,-0.2834202647,0.07032405585,1.9502215390000002,0.390075016,-0.23169999600000002,0.3927000093,0.4018000111,-8.477000093,-1.362199986,0.9936671030717829,0.11236408800382318,-0.9983691039261356,0.057088810862767986
290,0.1146720648,-0.2699970901,0.09697047620999999,2.0306923390000002,0.3729249907,-0.27125,0.3692500067,-0.7839999825,-8.545599794,-1.352399966,0.9908848681582388,0.13471146222586097,-0.9994127752358013,0.03426521115466343
291,0.11352150890000001,-0.26232671739999996,0.002306450158,2.007721424,0.3729249907,-0.27125,0.3692500067,-0.7839999825,-8.545599794,-1.352399966,0.9876001099813017,0.1569905180732928,-0.9999347471268515,0.011423724802340312
292,0.1146720648,-0.2523552477,0.06221705675,1.9982448819999998,0.3611999893,-0.32235000129999997,0.31272501469999997,-1.23480002,-8.575,-1.097600034,0.983814494392829,0.17918995681282526,-0.9999347471268515,-0.011423724802340066
293,0.1142885461,-0.2439178377,0.03167199343,1.918558955,0.3611999893,-0.32235000129999997,0.31272501469999997,-1.23480002,-8.575,-1.097600034,0.9795299412524945,0.20129852008866006,-0.9994127752358013,-0.034265211154663626
294,0.1146720648,-0.2385485768,0.04728725553,1.6101183890000001,0.29610000129999997,-0.376775012,0.2155999947,-1.577799985,-9.172799897,-1.136799967,0.9747486234541382,0.2233049956321237,-0.9983691039261356,-0.057088810862767736
295,0.1131379902,-0.2343298644,-0.05054986103999999,1.410698056,0.29610000129999997,-0.376775012,0.2155999947,-1.577799985,-9.172799897,-1.136799967,0.9694729658237924,0.24519822294792423,-0.9968042780004917,-0.07988260987172721
296,0.1139050275,-0.2274265289,-0.002774018794,1.392038822,0.1734249973,-0.368200016,0.179375,-1.969800049,-10.00580027,-0.6075999901,0.9637056438899408,0.26696709897415166,-0.9947191143073184,-0.10263470968275744
297,0.1127544716,-0.2243583798,-0.06419184059,1.1881227490000001,0.1734249973,-0.368200016,0.179375,-1.969800049,-10.00580027,-0.6075999901,0.9574495825266356,0.2886005837131506,-0.9921147013144779,-0.1253332335643043
298,0.1139050275,-0.2209067196,0.01607967168,1.053896189,0.02835000008,-0.310625,0.032025000750000004,-2.45,-9.976400065,-0.3430000015,0.9507079544701582,0.310087705830411,-0.9889923985410572,-0.14796633275176646
299,0.1119874343,-0.2216737568,-0.08151563257,0.7443947195999999,0.02835000008,-0.310625,0.032025000750000004,-2.45,-9.976400065,-0.3430000015,0.9434841787099802,0.33141756821863577,-0.9853538358476931,-0.1705221926326233
300,0.1108368784,-0.22397486870000002,-0.1138494164,0.436109215,-0.107099998,-0.2434249973,-0.02117500067,-2.577400112,-10.60360017,0.19599999559999998,0.9357819187548356,0.35257935352416514,-0.9812009125857729,-0.19298903891373342
301,0.1112203971,-0.22665949170000002,-0.06491824239,0.18017414210000002,-0.107099998,-0.2434249973,-0.02117500067,-2.577400112,-10.60360017,0.19599999559999998,0.9276050807747878,0.3735623296329536,-0.9765357966059638,-0.2153551437675818
302,0.1104533598,-0.227810055,-0.08846245706,0.07144802064,-0.22242500070000001,-0.13772499800000002,-0.02012499958,-1.8914000359999998,-10.47620006,2.057999936,0.9189578116202306,0.39435585511331855,-0.9713609231265806,-0.2376088319542799
303,0.1096863225,-0.22896060350000003,-0.1077525839,-0.006712932140000001,-0.2950500107,-0.053549999,-0.1216249967,-1.264199933,-8.447599888,2.410800067,0.9098444967188306,0.4149493846126993,-0.9656789934623878,-0.25973848691610874
304,0.1096863225,-0.22896060350000003,-0.1077525839,-0.006712932140000001,-0.2950500107,-0.053549999,-0.1216249967,-1.264199933,-8.447599888,2.410800067,0.9002697578514745,0.4353324742056898,-0.9594929736144975,-0.28173255684142945
305,0.10470058019999999,-0.23509690170000003,-0.2579231262,-0.3015787303,-0.2950500107,-0.053549999,-0.1216249967,-1.264199933,-8.447599888,2.410800067,0.8902384508083516,0.45549478669063403,-0.9528060927220979,-0.3035795606948019
306,0.103933543,-0.2366309762,-0.2750146389,-0.35498535630000005,-0.28857499600000003,-0.01610000029,-0.3072999907,-0.02940000026,-8.437800014,0.9995999812999999,0.8797556629263601,0.47542609683209514,-0.9456218413768249,-0.3252680942101499
307,0.1023994684,-0.2435343117,-0.2671373487,-0.5890274644,-0.28857499600000003,-0.01610000029,-0.3072999907,-0.02940000026,-8.437800014,0.9995999812999999,0.8688267105090839,0.4951162965465433,-0.937943969800652,-0.34678683584385617
308,0.1012489125,-0.2515881956,-0.2671967447,-0.860363245,-0.26932500600000003,0.02327500075,-0.28367498399999996,0.7742000356000001,-8.976800084,-0.048999998899999994,0.857457136130651,0.5145554000286288,-0.9297764858882512,-0.36812455268467836
309,0.1004818752,-0.2558069229,-0.2290660143,-0.9078903198,-0.26932500600000003,0.02327500075,-0.28367498399999996,0.7742000356000001,-8.976800084,-0.048999998899999994,0.8456527058248398,0.5337335488154431,-0.9211236531148503,-0.389270106317391
310,0.1004818752,-0.2600256205,-0.1640031934,-0.8836897612000001,-0.196875,0.09169999598999999,-0.22504999399999998,0.7742000356000001,-8.222199868999999,-1.440599999,0.8334194061608575,0.5526410167861988,-0.91198998831067,-0.41021245863711164
311,0.09856428206000001,-0.2619432211,-0.22293218969999998,-0.7425885797,-0.196875,0.09169999598999999,-0.22504999399999998,0.7742000356000001,-8.222199868999999,-1.440599999,0.8207634412072763,0.5712682150947923,-0.9023802593031154,-0.43094067761124866
312,0.0989478007,-0.2653948665,-0.13942576939999998,-0.6989941001000001,-0.113574996,0.1492749953,-0.3094000053,0.7252000093000001,-7.92820015,-2.547999907,0.807691229385665,0.5896056970327485,-0.8922994824279392,-0.4514439429860942
313,0.09779724479,-0.26654544469999997,-0.16844666,-0.6076181531,-0.113574996,0.1492749953,-0.3094000053,0.7252000093000001,-7.92820015,-2.547999907,0.794209400215512,0.6076441628200806,-0.8817529199106859,-0.47171155193505654
314,0.09626317024,-0.26846301559999997,-0.20468828079999998,-0.5106621981,-0.09222499967,0.1365000033,-0.4396000147,0.1372000042,-10.04499977,-3.351600075,0.7803247909520918,0.6253744643216369,-0.8707460771197774,-0.4917329246456035
315,0.09626317024,-0.26654544469999997,-0.1679872423,-0.2945605814,-0.09222499967,0.1365000033,-0.4396000147,0.1372000042,-10.04499977,-3.351600075,0.7660444431189781,0.6427876096865393,-0.8592846996926791,-0.5114976098419838
316,0.09511261433,-0.2630937696,-0.1863781661,-0.027821343389999996,-0.062299999,0.09380000234,-0.45027499200000004,-1.8326000630000001,-10.77019978,-3.6161998810000004,0.7513755989369636,0.6598747679083655,-0.8473747705366426,-0.5309952902408573
317,0.09242798388000001,-0.2581080198,-0.28714913129999997,0.2378212214,-0.062299999,0.09380000234,-0.45027499200000004,-1.8326000630000001,-10.77019978,-3.6161998810000004,0.7363256976511973,0.6766272733037574,-0.8350225067055925,-0.5502157879369771
318,0.08744224161,-0.2492870986,-0.4733183682,0.6366418004,-0.1338750017,-0.01400000021,-0.6411999893,-1.92079995,-12.76939974,-3.1458000960000003,0.720902371758401,0.6930366299071876,-0.8222343561547876,-0.5691490697161176
319,0.07862131298,-0.2400826514,-0.8051404356999999,0.9555225968000001,-0.1338750017,-0.01400000021,-0.6411999893,-1.92079995,-12.76939974,-3.1458000960000003,0.7051134431360795,0.7090945157796545,-0.8090169943749475,-0.587785252292473
320,0.06481464207,-0.2297276407,-1.329468846,1.243516922,-0.188300004,-0.173075006,-0.6167000294,-3.65539996,-15.9935997,-2.43039996,0.6889669190756866,0.7247927872291199,-0.7953773209076112,-0.6061146074677881
321,0.05369260535,-0.2197561562,-1.573871136,1.4376595019999998,-0.188300004,-0.173075006,-0.6167000294,-3.65539996,-15.9935997,-2.43039996,0.6724709882217603,0.7401234829405489,-0.781322455743531,-0.6241275672095394
322,0.039502415810000004,-0.2097846717,-1.906784773,1.578279257,-0.297149992,-0.3597999907,-0.41177501200000005,-3.988600051,-16.37580004,-1.0878000140000001,0.6556340164190844,0.7550788280134597,-0.7668597356059976,-0.6418147286455019
323,0.02262759767,-0.2055659741,-2.295961618,1.376445651,-0.442225008,-0.5304249907,-0.23152499199999999,-3.5084001000000002,-16.65020001,-0.2841999918,0.6384645424699836,0.7696512379049322,-0.7519967101210262,-0.6591668589721068
324,0.02262759767,-0.2055659741,-2.295961618,1.376445651,-0.442225008,-0.5304249907,-0.23152499199999999,-3.5084001000000002,-16.65020001,-0.2841999918,0.6209712738039049,0.7838333222760792,-0.7367411378764052,-0.6761749002740192
325,-0.02224407904,-0.1875406057,-2.9400322439999997,1.3756694790000001,-0.442225008,-0.5304249907,-0.23152499199999999,-3.5084001000000002,-16.65020001,-0.2841999918,0.6031630820614798,0.797617888740026,-0.7211009823716694,-0.6928299742524232
326,-0.030681489039999996,-0.18485596780000002,-3.085406542,1.37117219,-0.47740001200000004,-0.6179250239999999,0.027825000580000002,-3.361399949,-14.26879971,0.5488000169,0.5850489985953077,0.8109979465095012,-0.7050844078611056,-0.7091233868595466
327,-0.04985741898,-0.17987023289999998,-3.288254976,1.279102802,-0.47740001200000004,-0.6179250239999999,0.027825000580000002,-3.361399949,-14.26879971,0.5488000169,0.5666382098897412,0.8239667099421855,-0.6886997750919613,-0.7250466328370071
328,-0.06903334707,-0.1775691211,-3.4251544480000002,1.060249805,-0.48912501340000003,-0.632974968,0.06632499933,-2.802800131,-13.05360017,0.9408000082,0.5479400529019987,0.8365176019820234,-0.6719556369400881,-0.7405914001556058
329,-0.0905103907,-0.1752680093,-3.664343834,0.8940429688,-0.48912501340000003,-0.632974968,0.06632499933,-2.802800131,-13.05360017,0.9408000082,0.5289640103269625,0.8486442574947509,-0.6548607339452852,-0.7557495743542582
330,-0.1142885461,-0.1710492969,-3.756394386,0.8325341940000001,-0.4486999893,-0.5998999786,0.1931999993,-2.587199986,-12.00500023,1.038799988,0.5097197057880708,0.8603405264959465,-0.6374239897486896,-0.7705132427757894
331,-0.132313922,-0.1675976366,-3.917798758,0.8386657834000001,-0.4486999893,-0.5998999786,0.1931999993,-2.587199986,-12.00500023,1.038799988,0.49021689895673354,0.8716004772699725,-0.619654506434581,-0.7848746986973881
332,-0.1568591148,-0.1664470732,-3.971589565,0.6422044635,-0.337575016,-0.4910499907,0.2444750047,-2.126599929,-10.58400042,1.587600005,0.4704654806027556,0.8824183993782191,-0.6015615597790394,-0.7988264453535632
333,-0.1748844832,-0.1652965248,-4.0790171619999995,0.5635790229,-0.337575016,-0.4910499907,0.2444750047,-2.126599929,-10.58400042,1.587600005,0.450475467578273,0.8927888065551317,-0.5831545944079318,-0.8123611998495007
334,-0.2005802244,-0.1633789241,-4.1574048999999995,0.49432659149999997,-0.2586499953,-0.4012750053,0.2423750067,-1.646399978,-10.66240058,1.881600016,0.43025699773774595,0.9027064394905474,-0.5644432188667692,-0.8254718969627739
335,-0.2159209698,-0.1591602266,-4.0937018389999995,0.5925576091,-0.2586499953,-0.4012750053,0.2423750067,-1.646399978,-10.66240058,1.881600016,0.4098203247965874,0.9121662684969334,-0.5454372006049801,-0.8381516928314365
336,-0.2396991253,-0.1557085514,-4.04214859,0.6179347038,-0.09974999666,-0.2616249967,0.266875,-1.607200044,-10.00580027,2.498999953,0.3891758131310327,0.9211634960601726,-0.5261464608772486,-0.8503939685265565
337,-0.2558069229,-0.1507228166,-4.042883396000001,0.7179805636,-0.09974999666,-0.2616249967,0.266875,-1.607200044,-10.00580027,2.498999953,0.3683339325218872,0.9296935592726034,-0.5065810695645585,-0.8621923335073376
338,-0.2761333883,-0.14612059300000002,-3.846244335,0.7657342553,0.02625,-0.21682500600000001,0.1975749993,-2.028600022,-10.01559956,2.528399867,0.3473052528448203,0.9377521321470804,-0.48675123991765645,-0.8735406289570188
339,-0.2933917344,-0.14036780599999998,-3.745660543,0.8621157408,0.02625,-0.21682500600000001,0.1975749993,-2.028600022,-10.01559956,2.528399867,0.3261004387098949,0.9453351278108807,-0.4666673232256739,-0.8844329309978142
340,-0.30719840530000003,-0.1353820711,-3.481855631,0.8925976157,0.1372000027,-0.177275002,0.1494499993,-2.048200062,-10.31939974,2.283399954,0.3047302440530537,0.952438700578345,-0.4463398034126924,-0.8948635537832117
341,-0.3194710016,-0.1296292841,-3.383909702,0.9690364599,0.1372000027,-0.177275002,0.1494499993,-2.048200062,-10.31939974,2.283399954,0.28320550668230393,0.9590592479012021,-0.42577929156507216,-0.9048270524660198
342,-0.33596229549999995,-0.1261776239,-3.180762291,0.9005354643000001,0.22470000269999998,-0.1067499983,0.133525002,-1.940399989,-10.54479976,1.9991999630000001,0.26153714278136675,0.9651934121955863,-0.40499652039240575,-0.9143182260406076
343,-0.3478513658,-0.12310947480000001,-3.1298670769999997,0.8321694136,0.2908500147,-0.04059999883,0.166600008,-1.969800049,-10.53500047,1.803200004,0.23973614137357824,0.9708380825448225,-0.38400233862497185,-0.9233321200578655
344,-0.3478513658,-0.12310947480000001,-3.1298670769999997,0.8321694136,0.2908500147,-0.04059999883,0.166600008,-1.969800049,-10.53500047,1.803200004,0.2178135587488515,0.9759903962771154,-0.36280770535064144,-0.9318640292114522
345,-0.38006693119999996,-0.1177402139,-2.897203445,0.6479392052,0.2908500147,-0.04059999883,0.166600008,-1.969800049,-10.53500047,1.803200004,0.1957805128565231,0.980647740417341,-0.34142368429416386,-0.9399094997939956
346,-0.387737304,-0.1162061393,-2.6774203780000003,0.599732101,0.34632501600000004,0.00630000025,0.2241750073,-1.8326000630000001,-10.28999953,1.76400007,0.17364817766693041,0.984807753012208,-0.31986143804184064,-0.9474643320219531
347,-0.40039342640000003,-0.11543910210000001,-2.7863354680000003,0.5177196860000001,0.34632501600000004,0.00630000025,0.2241750073,-1.8326000630000001,-10.28999953,1.76400007,0.1514277775045767,0.9884683243281114,-0.29813222221458513,-0.9545245822279242
348,-0.4122824967,-0.11543910210000001,-2.535137415,0.375872314,0.3772999907,0.04357500017,0.24010000469999998,-1.577799985,-9.751000047,1.675800037,0.12913058135576147,0.9916275979210759,-0.27624737959242,-0.9610865649192696
349,-0.4237880707,-0.11658965800000001,-2.4686229230000003,0.2106280178,0.3772999907,0.04357500017,0.24010000469999998,-1.577799985,-9.751000047,1.675800037,0.10676789715355878,0.9942839715782444,-0.2542183341934868,-0.9671468547019572
350,-0.4333760142,-0.1162061393,-2.3277657030000003,0.1696566492,0.34632501600000004,0.081025002,0.225224998,-1.76400007,-9.280600262,1.528800032,0.08435106604304476,0.996436098130433,-0.23205658531063136,-0.9727022880686411
351,-0.444114536,-0.1142885461,-2.278319836,0.2348217964,0.34632501600000004,0.081025002,0.225224998,-1.76400007,-9.280600262,1.528800032,0.061891456629681894,0.9980828861353431,-0.20977370150871005,-0.9777499650500299
352,-0.45485305789999997,-0.1146720648,-2.254196167,0.1598446965,0.3601499987,0.11514999869999999,0.2625,-1.479799932,-9.163000023,0.950600028,0.039400459213775656,0.9992235004310815,-0.18738131458572463,-0.9822872507286887
353,-0.4652080834,-0.1139050275,-2.216624022,0.1604568511,0.3601499987,0.11514999869999999,0.2625,-1.479799932,-9.163000023,0.950600028,0.016889480013931084,0.9998573625597098,-0.16489111350096325,-0.9863117766144803
354,-0.475179553,-0.1146720648,-2.162692308,0.07172247022000001,0.341074996,0.131074996,0.2593499947,-1.293599993,-9.456999742999999,0.7153999895,-0.005630064617565672,0.9999841510606066,-0.14231483827328525,-0.9898214418809327
355,-0.4863016009,-0.1139050275,-2.186943531,0.08879442513000001,0.341074996,0.131074996,0.2593499947,-1.293599993,-9.456999742999999,0.7153999895,-0.02814675398450525,0.999603801633495,-0.11966427385276596,-0.9928144144618823
356,-0.4955060482,-0.1150555834,-2.098268986,-0.006117887795,0.292949996,0.09485000133999999,0.32987500670000003,-1.352399966,-9.643200266000001,0.24500000370000002,-0.05064916883871264,0.9987165071710528,-0.09695124396888166,-0.9952891320078233
357,-0.5043269396,-0.1139050275,-2.01520443,0.046332094819999996,0.292949996,0.09485000133999999,0.32987500670000003,-1.352399966,-9.643200266000001,0.24500000370000002,-0.07312589717127616,0.9973227176610868,-0.07418760495845235,-0.9972443027014637
358,-0.5154489875,-0.1119874343,-2.063465834,0.13534908,0.2481500053,0.07244999766,0.3512249947,-1.058400027,-9.486399948999999,0.07840000372,-0.09556554000009812,0.9954231399583243,-0.05138523957656339,-0.9986789059320614
359,-0.5250369906,-0.1127544716,-2.033486366,0.06604760885,0.2481500053,0.07244999766,0.3512249947,-1.058400027,-9.486399948999999,0.07840000372,-0.11795671715084585,0.9930187374259336,-0.028556050793696598,-0.9995921928281892
360,-0.5353919864,-0.1112203971,-2.058721066,0.131726712,0.1895249987,0.02975000083,0.3478999853,-1.195600013,-9.839199495,-0.009800000465,-0.14028807302835977,0.9901107294469592,-0.005711955582307921,-0.9999836866486501
361,-0.5434458852,-0.1100698411,-1.954439878,0.1664037555,0.1895249987,0.02975000083,0.3478999853,-1.195600013,-9.839199495,-0.009800000465,-0.16254828237559632,0.9867005908059159,0.01713512130389872,-0.9998531830313392
362,-0.5522667766,-0.1070016921,-1.9035784009999999,0.29003059859999997,0.140350008,-0.01610000029,0.38097500799999995,-1.1662000270000001,-9.515800153999999,-0.03920000186,-0.18472605601718908,0.982790050940858,0.03997325355477273,-0.9992007500999215
363,-0.5603206754,-0.10278298710000001,-1.83128202,0.44392770530000003,0.112700001,-0.049174999000000004,0.3489500093,-0.8623999953,-8.496599841,-0.2939999934,-0.20681014658470726,0.978381093066302,0.06279051952931283,-0.9980267284282716
364,-0.5603206754,-0.10278298710000001,-1.83128202,0.44392770530000003,0.112700001,-0.049174999000000004,0.3489500093,-0.8623999953,-8.496599841,-0.2939999934,-0.2287893542207117,0.9734759531674472,0.08557500847884005,-0.9963317308626913
365,-0.5810306668,-0.09281150252,-1.7512474059999998,0.6232688427,0.112700001,-0.049174999000000004,0.3489500093,-0.8623999953,-8.496599841,-0.2939999934,-0.25065253225872064,0.9680771188662043,0.10831482676447397,-0.9941166422020014
366,-0.5860164165,-0.09127742797,-1.735034704,0.6384243964999999,0.062474998829999996,-0.1100749993,0.2700250053,-0.9898000345,-9.378600168,-0.4410000175,-0.27238859287619316,0.9621873281596092,0.1309981040656921,-0.9913826187356697
367,-0.5936868191,-0.08859279752,-1.6874566080000002,0.603227973,0.062474998829999996,-0.1100749993,0.2700250053,-0.9898000345,-9.378600168,-0.4410000175,-0.2939865127176766,0.9558095680312577,0.15361299957669963,-0.9881310876402224
368,-0.5998231172999999,-0.08514112979,-1.5647867919999998,0.6265533566,0.022924998999999998,-0.1580249953,0.333025012,-0.9800000146,-9.897999907,-0.8133999690000001,-0.3154353384852555,0.9489470729364691,0.17614770818740175,-0.9843637462342495
369,-0.6055758595,-0.08437409252,-1.4484810830000001,0.5045826435,0.022924998999999998,-0.1580249953,0.333025012,-0.9800000146,-9.897999907,-0.8133999690000001,-0.33672419249347124,0.9416033231619458,0.1985904666457455,-0.9800825610923934
370,-0.6120957136,-0.0820729807,-1.39848721,0.4690464139,0.0017500000260000001,-0.1975749993,0.4184249973,-0.9995999812999999,-9.829400206,-0.6075999901,-0.3578422781858993,0.9337820430607592,0.2209295596982032,-0.9752897670187861
371,-0.6174649596,-0.08168946207000001,-1.303414941,0.3929381669,0.0017500000260000001,-0.1975749993,0.4184249973,-0.9995999812999999,-9.829400206,-0.6075999901,-0.378778885610576,0.9254871991635596,0.24315332620520963,-0.969987865880467
372,-0.6220671535,-0.08015538752000001,-1.190037489,0.3605506718,-0.005775000229,-0.223125,0.4439750147,-1.038799988,-9.69220022,-0.2646000069,-0.39952339685151,0.9167229981669658,0.2652501652283378,-0.9641796253013956
373,-0.6289705038000001,-0.0820729807,-1.245821595,0.1759669632,-0.005775000229,-0.223125,0.4439750147,-1.038799988,-9.69220022,-0.2646000069,-0.4200652914135149,0.907493884800156,0.28720854208606617,-0.9578680772177327
374,-0.6331892014,-0.08322353661000001,-1.139919043,0.06693094968999999,-0.01644999996,-0.24762499329999998,0.4481750107,-1.12700002,-9.760799921,-0.1077999994,-0.4403941515576344,0.8978045395707416,0.30901699437494723,-0.9510565162951536
375,-0.6374078989,-0.08284001797,-1.069719315,0.05708737671,-0.01644999996,-0.24762499329999998,0.4481750107,-1.12700002,-9.760799921,-0.1077999994,-0.4604996675844586,0.8876598763910664,0.330664137953051,-0.9437484982090121
376,-0.6420101522999999,-0.08130594343,-1.028223872,0.1202245131,-0.021875,-0.280700016,0.5239500093,-1.342599946,-9.643200266000001,0.117600001,-0.48037164306264507,0.8770650400861356,0.3521386728825546,-0.9359478377882569
377,-0.6450783014,-0.08130594343,-0.9242194891,0.09088108688999999,-0.021875,-0.280700016,0.5239500093,-1.342599946,-9.643200266000001,0.117600001,-0.4999999999999998,0.8660254037844388,0.3734293893283777,-0.9276586070240683
378,-0.6485299468,-0.08053890616,-0.8528326154000001,0.10879287119999999,-0.005775000229,-0.2817500067,0.4877250147,-0.882000035,-9.300200009,-0.4115999945,-0.5193747839544876,0.8545465661929895,0.3945251734097825,-0.9188851329442549
379,-0.6527486444,-0.08092242478999999,-0.8478432298,0.06631343812000001,-0.005775000229,-0.2817500067,0.4877250147,-0.882000035,-9.300200009,-0.4115999945,-0.5384861690825887,0.8426343487579637,0.4154150130018868,-0.9096319953545182
380,-0.6550498009000001,-0.08130594343,-0.7441741228000001,0.03372986987,-0.015399999919999999,-0.3160499907,0.5111749839999999,-0.8623999953,-9.711799967000001,-0.2646000069,-0.5573244631224363,0.8302947927123765,0.4360880034840549,-0.8999040244477691
381,-0.6577343941,-0.08130594343,-0.6839358806999999,0.028887275610000002,-0.015399999919999999,-0.3160499907,0.5111749839999999,-0.8623999953,-9.711799967000001,-0.2646000069,-0.5758801123092064,0.8175341560122952,0.45653335343218204,-0.8897062982827346
382,-0.6592684984,-0.08284001797,-0.5810856222999999,-0.06827825307999999,-0.022924998999999998,-0.336174984,0.5122250079999999,-0.8231999889,-8.957199752000001,-0.3136000149,-0.5941437062202726,0.8043589101631425,0.47674039025187515,-0.8790441401331845
383,-0.6611860990999999,-0.08168946207000001,-0.527859807,0.002884659916,-0.021875,-0.3491250134,0.4866749907,-0.5292000137,-9.241400182000001,-0.3626000047,-0.6121059825476628,0.7907757369376986,0.4966985657496114,-0.8679231157091503
384,-0.6611860990999999,-0.08168946207000001,-0.527859807,0.002884659916,-0.021875,-0.3491250134,0.4866749907,-0.5292000137,-9.241400182000001,-0.3626000047,-0.6297578317954025,0.7767915249874664,0.5163974616389613,-0.8563490302515894
385,-0.6631036996999999,-0.08245649933999999,-0.2803446651,-0.03583562002,-0.021875,-0.3491250134,0.4866749907,-0.5292000137,-9.241400182000001,-0.3626000047,-0.6470903018993573,0.7624133663491207,0.535826794978996,-0.8443279255020155
386,-0.6623366475,-0.08168946207000001,-0.2028327137,0.01094069332,-0.03255000025,-0.362949996,0.4887750053,-0.4115999945,-9.00620029,-0.39199999119999995,-0.6640946027672391,0.7476485528478088,0.5549764235420405,-0.8318660765486748
387,-0.6634871960000001,-0.08130594343,-0.1995945275,0.03452780843,-0.03255000025,-0.362949996,0.4887750053,-0.4115999945,-9.00620029,-0.39199999119999995,-0.6807621107364611,0.7325045723991341,0.5738363511079774,-0.8189699885509127
388,-0.6615695953,-0.08168946207000001,-0.03894194216,0.01489846967,-0.051625000830000004,-0.37047500130000005,0.446074996,-0.19599999559999998,-8.918000257000001,-0.1469999967,-0.697084372947599,0.716989105211685,0.5923967326823365,-0.8056463933434397
389,-0.6627201438,-0.08092242478999999,-0.08074848354,0.056484494360000005,-0.051625000830000004,-0.37047500130000005,0.446074996,-0.19599999559999998,-8.918000257000001,-0.1469999967,-0.7130531116312202,0.7011100198920528,0.6106478796354373,-0.7919022459222758
390,-0.6634871960000001,-0.08130594343,-0.09894374013,0.033013589680000004,-0.05809999882999999,-0.3512249947,0.429100008,-0.01960000093,-9.40799979,0.05880000051,-0.7286602283059237,0.6848753694542965,0.6285802647599154,-0.777744720814198
391,-0.6619530915999999,-0.08245649933999999,0.007261008024,-0.03780803829,-0.05809999882999999,-0.3512249947,0.429100008,-0.01960000093,-9.40799979,0.05880000051,-0.743897807885451,0.668293387235891,0.646184527243974,-0.7631812083316005
392,-0.6615695953,-0.08053890616,0.041035242379999996,0.06918998063,-0.08259999633,-0.3491250134,0.4408250093,-0.1372000042,-9.476600075,0.2841999918,-0.758758122692791,0.6513724827222223,0.6634514775577915,-0.7482193107147015
393,-0.6619530915999999,-0.08015538752000001,7.469207048e-05,0.08707326651000001,-0.08259999633,-0.3491250134,0.4408250093,-0.1372000042,-9.476600075,0.2841999918,-0.7732336363792394,0.6341212372817506,0.6803721022505065,-0.732866838163132
394,-0.65811795,-0.08092242478999999,0.1951098293,0.03509863466,-0.103950001,-0.34264999869999996,0.4353999853,0.07840000372,-9.466800201,0.39199999119999995,-0.7873170077464282,0.6165483998140056,0.6969375686552932,-0.7171318047589638
395,-0.6585014462,-0.08053890616,0.11799877140000001,0.051088795070000005,-0.103950001,-0.34264999869999996,0.4353999853,0.07840000372,-9.466800201,0.39199999119999995,-0.8010010944693844,0.5986628823126152,0.713139229500067,-0.7010224242833112
396,-0.6550498009000001,-0.08053890616,0.2664727867,0.047180976720000004,-0.1295000017,-0.32987500670000003,0.40985000130000004,0.19599999559999998,-9.613800061000001,0.5879999869,-0.8142789567187326,0.5804737553456248,0.7289686274214113,-0.684547105928689
397,-0.6535156965,-0.08053890616,0.2840609252,0.03857718408,-0.1295000017,-0.32987500670000003,0.40985000130000004,0.19599999559999998,-9.613800061000001,0.5879999869,-0.8271438606801984,0.5619902434553972,0.7444174993793717,-0.6677144499093629
398,-0.6519816518,-0.07938835025,0.2946431041,0.09757936746,-0.1520749927,-0.3074749947,0.419474988,0.235200002,-9.65300014,0.8231999889,-0.839589281969639,0.5432217204804185,0.759477780970813,-0.6505332429719867
399,-0.6496804953,-0.07977186888,0.34541800619999996,0.06294951588,-0.1520749927,-0.3074749947,0.419474988,0.235200002,-9.65300014,0.8231999889,-0.8516089089418548,0.5241777048013999,0.7741416106390822,-0.6330124538088708
400,-0.6485299468,-0.07823779434,0.32851547,0.1330292523,-0.1604750013,-0.27650000329999996,0.4173750067,0.2841999918,-9.770599793999999,0.7742000356000001,-0.8631966458915179,0.5048678545140632,0.7884013337777939,-0.6151612283762654
401,-0.6489135027,-0.07900483161,0.2224434167,0.05623421445,-0.1604750013,-0.27650000329999996,0.4173750067,0.2841999918,-9.770599793999999,0.7742000356000001,-0.8743466161445821,0.48530196253108104,0.8022495067265754,-0.5969888851201223
402,-0.6469959021,-0.07708723843,0.2622920573,0.1462054253,-0.17552499530000001,-0.25830000399999997,0.402324996,0.19599999559999998,-9.280600262,0.882000035,-0.8850531650386154,0.4654899516156384,0.8156789006567019,-0.5785049101118107
403,-0.6439277529999999,-0.07747075707000001,0.3609583676,0.08572681248,-0.1893499947,-0.23379999399999998,0.3554249907,0.1568000074,-8.770999813,0.7839999825,-0.8953108627905392,0.4454418693491446,0.8286825053445912,-0.5597189520963282
404,-0.6439277529999999,-0.07747075707000001,0.3609583676,0.08572681248,-0.1893499947,-0.23379999399999998,0.3554249907,0.1568000074,-8.770999813,0.7839999825,-0.9051145072503213,0.4251678830356406,0.8412535328311808,-0.5406408174555982
405,-0.6335727572,-0.06980038434,0.6320227385,0.3827376068,-0.1893499947,-0.23379999399999998,0.3554249907,0.1568000074,-8.770999813,0.7839999825,-0.9144591265392237,0.40467827454549626,0.8533854209652818,-0.5212804650894839
406,-0.6301210522999999,-0.06596519798,0.7184976934999999,0.5258883834,-0.1935500073,-0.1975749993,0.225224998,0.2646000069,-7.487199986,0.7644000157999999,-0.9233399815712736,0.38398343510099514,0.8650718368290611,-0.5016480012171826
407,-0.6216836572,-0.06021242216,0.9258899093,0.6614435315,-0.1935500073,-0.1975749993,0.225224998,0.2646000069,-7.487199986,0.7644000157999999,-0.9317525684566684,0.36309386000647476,0.8763066800438636,-0.4817536741017153
408,-0.6174649596,-0.055610198529999995,0.9570186138,0.76977247,-0.18392500399999998,-0.14,-0.009450000376,0.8623999953,-7.74200021,0.5096000104999999,-0.9396926207859083,0.3420201433256689,0.8870840859546454,-0.46160786870027615
409,-0.6109451652000001,-0.05100797489,1.034684777,0.8020634651,-0.18392500399999998,-0.14,-0.009450000376,0.8623999953,-7.74200021,0.5096000104999999,-0.9471561117934867,0.32077297250897563,0.8973984286913583,-0.4412211012432214
410,-0.6028912663,-0.04410463944,1.183768511,0.9515124559,-0.1914499927,-0.07367500067,-0.09817500234,0.6860000029000001,-8.506399715,0.7545999959,-0.9541392564000488,0.299363122973358,0.9072443241056882,-0.42060401374453504
411,-0.5967549682,-0.04026945308,1.19156158,0.9087180495,-0.1914499927,-0.07367500067,-0.09817500234,0.6860000029000001,-8.506399715,0.7545999959,-0.9606385131319792,0.2778014526376349,0.9166166325816116,-0.39976736844663396
412,-0.5887010694,-0.03528371081,1.305533528,0.9346991181000001,-0.1979250073,0.003150000125,-0.1120000017,0.6664000362,-8.751400065,1.332800072,-0.9666505859174461,0.25609889641593164,0.9255104617183068,-0.37872204220241334
413,-0.5833318233,-0.03144852445,1.2468421459999999,0.8943815827,-0.1979250073,0.003150000125,-0.1120000017,0.6664000362,-8.751400065,1.332800072,-0.9721724257579906,0.2342664606720825,0.9339211688840154,-0.35747902079746474
414,-0.5756614207999999,-0.02684630267,1.322505713,0.8672106265999999,-0.196875,0.1076250017,-0.1076250017,0.7055999695999999,-9.721599841,1.430799979,-0.9772012322748141,0.2123152176377959,0.9418443636395246,-0.3360493932154305
415,-0.5699086785,-0.02377815358,1.272383332,0.7933270931,-0.196875,0.1076250017,-0.1076250017,0.7055999695999999,-9.721599841,1.430799979,-0.9817344551289793,0.19025629979742123,0.9492759100300014,-0.3144443458494884
416,-0.5630053282,-0.02032648586,1.289678693,0.7616004348000001,-0.19040000199999998,0.1982749987,-0.090649997,-0.5389999971,-9.858800411,1.940399989,-0.9857697953148038,0.16810089424214797,0.956211928743987,-0.2926751566629879
417,-0.5545679331000001,-0.01610778086,1.383242965,0.7883024812,-0.19040000199999998,0.1982749987,-0.090649997,-0.5389999971,-9.858800411,1.940399989,-0.9893052063257919,0.1458602369965244,0.9626487991384195,-0.27075318930228487
418,-0.5484316349,-0.013423151340000002,1.34575963,0.7233828306,-0.17762499329999998,0.2815750027,-0.09922500134,-1.146599987,-10.96619959,1.940399989,-0.9923388951925124,0.12354560732014663,0.968583161128631,-0.24868988716485535
419,-0.5407612324000001,-0.009587964974,1.3842985630000002,0.7314333916,-0.17762499329999998,0.2815750027,-0.09922500134,-1.146599987,-10.96619959,1.940399989,-0.9948693233918952,0.10116832198743228,0.9740119169423334,-0.22649676742576502
420,-0.5330908895,-0.007286853623000001,1.424976707,0.6590148211,-0.10832500099999999,0.3211250067,-0.11409999970000001,-2.528399867,-11.29939997,1.048600008,-0.9968952076274872,0.07873972954836193,0.9789322327366721,-0.20418541502564297
421,-0.5265710353999999,-0.003835186129,1.388148665,0.6674554347999999,-0.10832500099999999,0.3211250067,-0.11409999970000001,-2.528399867,-11.29939997,1.048600008,-0.9984155204802715,0.056271204573108156,0.9833415400775093,-0.18176747662327314
422,-0.5192841886999999,-0.001150555792,1.406478643,0.6281190515,-0.03359999925,0.29872499469999997,-0.1055250037,-3.0968001430000003,-12.00500023,0.39199999119999995,-0.999429490929718,0.03377414188346813,0.9872375372801626,-0.15925465451596535
423,-0.5135313869,0.0019175930650000002,1.342373848,0.6236494779999999,0.063525002,0.2794750047,-0.144024992,-2.7832000910000003,-11.90700033,-0.8231999889,-0.9999366047448041,0.011259950774026225,0.9906181906108981,-0.13665870053088658
424,-0.5135313869,0.0019175930650000002,1.342373848,0.6236494779999999,0.063525002,0.2794750047,-0.144024992,-2.7832000910000003,-11.90700033,-0.8231999889,-0.9999366047448041,-0.011259950774025534,0.9934817353485502,-0.11399140989054063
425,-0.5043269396,0.005752779078,0.9817410706999999,0.4757786393,0.063525002,0.2794750047,-0.144024992,-2.7832000910000003,-11.90700033,-0.8231999889,-0.999429490929718,-0.03377414188346788,0.995826676705718,-0.09126461505559187
426,-0.5031763911,0.0061362977139999995,0.9357737303,0.4438604712,0.15959999800000002,0.26127500530000003,-0.1130500007,-2.6165999,-11.51499953,-1.499399972,-0.9984155204802715,-0.05627120457310835,0.9976517906090526,-0.06849017954824582
427,-0.5012587905,0.008820927702,0.7892240286,0.4668976665,0.15959999800000002,0.26127500530000003,-0.1130500007,-2.6165999,-11.51499953,-1.499399972,-0.9968952076274873,-0.07873972954836124,0.9989561243382309,-0.04567999175942353
428,-0.49780714509999996,0.009971483611,0.776483655,0.3993549943,0.25129999399999997,0.2591750073,-0.1503250027,-2.302999994,-9.8,-1.391600046,-0.9948693233918952,-0.10116832198743203,0.9997389970232808,-0.022845958742949802
429,-0.49627307060000003,0.01112203952,0.6518012285,0.3552071154,0.25129999399999997,0.2591750073,-0.1503250027,-2.302999994,-9.8,-1.391600046,-0.9923388951925124,-0.12354560732014638,1.0,-2.4492935982947064e-16
430,-0.49167084689999996,0.009587964974,0.7340302467,0.17389523980000002,0.2523500013,0.3029249907,-0.20370000600000002,-1.813000023,-10.10380018,-0.9114000216,-0.9893052063257919,-0.14586023699652462,1.0,0.0
431,-0.4889862239,0.008820927702,0.6871619225,0.08792658895,0.2523500013,0.3029249907,-0.20370000600000002,-1.813000023,-10.10380018,-0.9114000216,-0.9857697953148038,-0.16810089424214775,0.9996988186962042,0.024541228522912288
432,-0.4843840003,0.009204446338,0.7514160275,0.07888353616,0.1851499987,0.3701249933,-0.12057499769999999,-2.881199998,-10.58400042,0.39199999119999995,-0.9817344551289793,-0.190256299797421,0.9987954562051724,0.049067674327418015
433,-0.48361697789999997,0.009587964974,0.5981360674,0.07593785971,0.1851499987,0.3701249933,-0.12057499769999999,-2.881199998,-10.58400042,0.39199999119999995,-0.9772012322748141,-0.21231521763779612,0.9972904566786902,0.07356456359966743
434,-0.48400047420000003,0.009971483611,0.4255173206,0.06701010466,0.15540000199999998,0.4480000067,-0.08627499699999999,-3.429999942,-10.90740035,1.323000053,-0.9721724257579907,-0.23426646067208184,0.9951847266721969,0.0980171403295606
435,-0.4824663997,0.01112203952,0.38831567759999996,0.11601324380000001,0.15540000199999998,0.4480000067,-0.08627499699999999,-3.429999942,-10.90740035,1.323000053,-0.9666505859174462,-0.2560988964159314,0.99247953459871,0.1224106751992162
436,-0.4813158512,0.009204446338,0.3492821455,-0.012733438049999999,0.11689999699999999,0.46410000799999995,0.058799998160000005,-4.537399995,-12.54399972,1.675800037,-0.9606385131319792,-0.2778014526376351,0.989176509964781,0.14673047445536175
437,-0.4801653028,0.01073852088,0.3216213286,0.07134784758,0.11689999699999999,0.46410000799999995,0.058799998160000005,-4.537399995,-12.54399972,1.675800037,-0.954139256400049,-0.2993631229733574,0.9852776423889412,0.17096188876030122
438,-0.4782477021,0.009204446338,0.3205888867,-0.028048923239999995,0.07735000134,0.46410000799999995,0.03430000067,-4.34139989,-12.47540002,2.067799956,-0.9471561117934868,-0.3207729725089754,0.9807852804032304,0.19509032201612825
439,-0.47556307909999995,0.008820927702,0.39842665200000005,-0.03681581095,0.07735000134,0.46410000799999995,0.03430000067,-4.34139989,-12.47540002,2.067799956,-0.9396926207859084,-0.34202014332566866,0.9757021300385286,0.2191012401568698
440,-0.47057732939999997,0.008053890429,0.5630248189,-0.06847964227000002,0.059325001839999995,0.49384998799999996,0.047075001,-4.8411998810000005,-11.94619982,1.5190000119999998,-0.9317525684566687,-0.36309386000647415,0.970031253194544,0.24298017990326387
441,-0.4663586318,0.005752779078,0.6289396882,-0.166310221,0.059325001839999995,0.49384998799999996,0.047075001,-4.8411998810000005,-11.94619982,1.5190000119999998,-0.9233399815712737,-0.3839834351009949,0.9637760657954398,0.26671275747489837
442,-0.4575377107,0.0007670372142,0.8919005990000001,-0.37969508770000004,0.029399999080000003,0.550549984,-0.003150000125,-4.204199903999999,-11.27980022,1.313200033,-0.9144591265392238,-0.40467827454549604,0.9569403357322088,0.29028467725446233
443,-0.4552365839,-0.0019175930650000002,0.8345438242000001,-0.4194267094,0.03255000025,0.6102249813,0.047075001,-3.988600051,-10.94659984,0.303799995,-0.9051145072503212,-0.4251678830356408,0.9495281805930367,0.3136817403988915
444,-0.4552365839,-0.0019175930650000002,0.8345438242000001,-0.4194267094,0.03255000025,0.6102249813,0.047075001,-3.988600051,-10.94659984,0.303799995,-0.8953108627905394,-0.44544186934914404,0.9415440651830208,0.33688985339222005
445,-0.4421969652,-0.0061362977139999995,0.9468362926999999,-0.3670171797,0.03255000025,0.6102249813,0.047075001,-3.988600051,-10.94659984,0.303799995,-0.8850531650386155,-0.4654899516156382,0.932992798834739,0.3598950365349881
446,-0.4421969652,-0.007670372258999999,0.783441484,-0.3925259709,0.05722499967,0.6156500053,0.021350000499999997,-3.518199974,-9.8,0.01960000093,-0.874346616144582,-0.48530196253108127,0.9238795325112867,0.3826834323650898
447,-0.435677141,-0.01112203952,0.9130251408,-0.4988122582,0.05722499967,0.6156500053,0.021350000499999997,-3.518199974,-9.8,0.01960000093,-0.8631966458915181,-0.5048678545140631,0.9142097557035307,0.40524131400498986
448,-0.43260899189999996,-0.01725833677,0.8279085755,-0.7049178481,0.05827499866,0.5729500294,-0.090649997,-3.3712001139999996,-9.643200266000001,-1.028999968,-0.8516089089418549,-0.5241777048013998,0.9039892931234433,0.4275550934302821
449,-0.4280067682,-0.02531222813,0.8942214251,-0.9601468444,0.05827499866,0.5729500294,-0.090649997,-3.3712001139999996,-9.643200266000001,-1.028999968,-0.8395892819696389,-0.5432217204804187,0.8932243011955153,0.44961132965460654
450,-0.4222539961,-0.03796834126,0.8956091999999999,-1.324128628,0.02625,0.538825016,-0.04795000017,-3.2144000889999997,-10.71140053,-1.783599964,-0.8271438606801987,-0.5619902434553966,0.881921264348355,0.47139673682599764
451,-0.416117698,-0.05024093762,0.9877780079999999,-1.61953342,0.02625,0.538825016,-0.04795000017,-3.2144000889999997,-10.71140053,-1.783599964,-0.8142789567187327,-0.5804737553456247,0.8700869911087115,0.49289819222978404
452,-0.40959787369999995,-0.0640476048,1.078095198,-1.919867992,0.008050000146,0.524824996,0.10465000029999999,-2.832200044,-10.4957998,-1.76400007,-0.8010010944693846,-0.5986628823126151,0.8577286100002721,0.5141027441932217
453,-0.40461212399999996,-0.07593668252,1.126619458,-2.150485039,0.008050000146,0.524824996,0.10465000029999999,-2.832200044,-10.4957998,-1.76400007,-0.787317007746428,-0.6165483998140057,0.8448535652497071,0.5349976198870972
454,-0.39847582579999996,-0.09127742797,1.095236301,-2.278918505,0.027299999,0.5269250107,0.1494499993,-2.518599993,-10.25080004,-1.0192000209999998,-0.7732336363792395,-0.6341212372817505,0.8314696123025452,0.5555702330196022
455,-0.39233952759999996,-0.1050840989,1.123512864,-2.403170109,0.027299999,0.5269250107,0.1494499993,-2.518599993,-10.25080004,-1.0192000209999998,-0.7587581226927911,-0.651372482722222,0.8175848131515837,0.5758081914178453
456,-0.3854362071,-0.1181237325,1.199754477,-2.460666418,0.02835000008,0.499275012,0.1249499977,-2.528399867,-10.53500047,-0.7153999895,-0.7438978078854508,-0.6682933872358912,0.8032075314806449,0.5956993044924334
457,-0.38006693119999996,-0.1296292841,1.1667662859999999,-2.421366453,0.02835000008,0.499275012,0.1249499977,-2.528399867,-10.53500047,-0.7153999895,-0.7286602283059238,-0.6848753694542964,0.7883464276266063,0.6152315905806268
458,-0.3739306331,-0.14036780599999998,1.170085669,-2.3544697759999997,0.03149999917,0.4758250093,0.1408750033,-2.185400048,-9.956800317999999,-1.107399981,-0.7130531116312204,-0.7011100198920526,0.773010453362737,0.6343932841636455
459,-0.368177861,-0.1499557793,1.160944343,-2.2385263440000003,0.03149999917,0.4758250093,0.1408750033,-2.185400048,-9.956800317999999,-1.107399981,-0.6970843729475992,-0.7169891052116848,0.7572088465064846,0.6531728429537768
460,-0.3624250889,-0.1583931893,1.150705457,-2.087333679,0.011199999750000002,0.44169999600000004,0.1088499963,-1.734600011,-9.8,-0.9408000082,-0.6807621107364616,-0.7325045723991335,0.7409511253549592,0.6715589548470183
461,-0.3559052646,-0.1679811478,1.188145995,-2.032799244,0.011199999750000002,0.44169999600000004,0.1088499963,-1.734600011,-9.8,-0.9408000082,-0.6640946027672394,-0.7476485528478087,0.724247082951467,0.6895405447370668
462,-0.3493854403,-0.17680208379999998,1.222361922,-1.952058434,-0.015399999919999999,0.403200016,0.12389999869999999,-1.842399937,-9.633399808,-0.9603999749,-0.6470903018993577,-0.7624133663491205,0.7071067811865476,0.7071067811865475
463,-0.3455502689,-0.18600653109999998,1.161563277,-1.924341083,-0.0453249985,0.3744999933,0.13772499800000002,-1.813000023,-9.211999977,-1.038799988,-0.6297578317954027,-0.7767915249874662,0.6895405447370669,0.7242470829514669
464,-0.3455502689,-0.18600653109999998,1.161563277,-1.924341083,-0.0453249985,0.3744999933,0.13772499800000002,-1.813000023,-9.211999977,-1.038799988,-0.6121059825476628,-0.7907757369376986,0.6715589548470184,0.740951125354959
465,-0.3294424713,-0.2055659741,1.185011029,-1.68283546,-0.0453249985,0.3744999933,0.13772499800000002,-1.813000023,-9.211999977,-1.038799988,-0.5941437062202728,-0.8043589101631423,0.6531728429537769,0.7572088465064845
466,-0.3244567513,-0.2086341232,1.2687629459999998,-1.6671069859999998,-0.06877500117,0.34352498530000003,0.1408750033,-1.6561999980000002,-8.86899972,-1.0878000140000001,-0.5758801123092063,-0.8175341560122953,0.6343932841636456,0.7730104533627369
467,-0.3194710016,-0.213619858,1.207902193,-1.4994521140000001,-0.06877500117,0.34352498530000003,0.1408750033,-1.6561999980000002,-8.86899972,-1.0878000140000001,-0.5573244631224366,-0.8302947927123763,0.6152315905806269,0.7883464276266062
468,-0.3129511774,-0.2189891189,1.232824326,-1.307578087,-0.08802500367,0.323224988,0.1025500023,-1.74440003,-8.506399715,-1.283799973,-0.5384861690825894,-0.8426343487579633,0.5956993044924335,0.8032075314806448
469,-0.3079654276,-0.22397486870000002,1.171817899,-1.291314602,-0.08802500367,0.323224988,0.1025500023,-1.74440003,-8.506399715,-1.283799973,-0.5193747839544878,-0.8545465661929894,0.5758081914178454,0.8175848131515837
470,-0.3022126555,-0.2285770923,1.1579144,-1.183870554,-0.109375,0.3125500107,0.0875,-1.950200009,-8.800400019,-1.372000006,-0.5000000000000004,-0.8660254037844384,0.5555702330196023,0.8314696123025451
471,-0.2972269058,-0.2343298644,1.1103471520000001,-1.168660998,-0.109375,0.3125500107,0.0875,-1.950200009,-8.800400019,-1.372000006,-0.48037164306264535,-0.8770650400861355,0.5349976198870974,0.844853565249707
472,-0.2903235853,-0.2396991253,1.175034642,-1.077765226,-0.1200500023,0.3211250067,0.1067499983,-1.861999977,-8.712199986,-1.372000006,-0.46049966758445876,-0.8876598763910662,0.5141027441932218,0.8577286100002721
473,-0.2857213616,-0.2423837632,1.110167742,-0.9877983928,-0.1200500023,0.3211250067,0.1067499983,-1.861999977,-8.712199986,-1.372000006,-0.440394151557635,-0.8978045395707414,0.49289819222978415,0.8700869911087113
474,-0.2799685895,-0.24813653530000002,1.113782883,-0.9661284684999999,-0.1167250013,0.345625,0.1132249963,-1.871799996,-8.565200126,-1.225,-0.4200652914135151,-0.9074938848001559,0.4713967368259978,0.8819212643483549
475,-0.2753663659,-0.2523552477,1.062863708,-0.9404528140999999,-0.1167250013,0.345625,0.1132249963,-1.871799996,-8.565200126,-1.225,-0.39952339685151,-0.9167229981669658,0.4496113296546066,0.8932243011955153
476,-0.2699970901,-0.2561904192,1.058397889,-0.9022673965000001,-0.106049999,0.362599988,0.093974998,-1.783599964,-8.526000047,-1.12700002,-0.3787788856105762,-0.9254871991635595,0.4275550934302822,0.9039892931234433
477,-0.2657783926,-0.2584915459,1.002103329,-0.7884607315000001,-0.106049999,0.362599988,0.093974998,-1.783599964,-8.526000047,-1.12700002,-0.35784227818589975,-0.933782043060759,0.4052413140049898,0.9142097557035307
478,-0.26079264280000003,-0.2611761689,0.9929137826000001,-0.7136251926,-0.08575000167,0.37975001340000003,0.05985000133999999,-1.617000064,-8.349599981,-1.009400001,-0.33672419249347146,-0.9416033231619457,0.38268343236508984,0.9238795325112867
479,-0.2542728484,-0.2630937696,1.08264184,-0.6221650243,-0.08575000167,0.37975001340000003,0.05985000133999999,-1.617000064,-8.349599981,-1.009400001,-0.31543533848525507,-0.9489470729364692,0.3598950365349883,0.9329927988347388
480,-0.2508211732,-0.2661619186,0.9830984473000001,-0.6210961938,-0.059150002,0.4000500107,0.032025000750000004,-1.714999971,-7.9772001029999995,-0.6467999965,-0.29398651271767684,-0.9558095680312576,0.33688985339222005,0.9415440651830208
481,-0.24621894960000001,-0.2696135938,0.9604726434,-0.6452971101,-0.059150002,0.4000500107,0.032025000750000004,-1.714999971,-7.9772001029999995,-0.6467999965,-0.2723885928761936,-0.9621873281596091,0.3136817403988915,0.9495281805930367
482,-0.2404661626,-0.27038061620000003,1.017958999,-0.515951395,-0.03359999925,0.4255999947,-0.02555000067,-1.342599946,-8.133999836000001,-0.6467999965,-0.2506525322587204,-0.9680771188662043,0.2902846772544623,0.9569403357322089
483,-0.2373980135,-0.2711476684,0.9112464786,-0.4176819921,0.009099999666000001,0.446950016,-0.03412500083,-1.666000018,-7.810599911000001,-0.5193999939,-0.22878935422071214,-0.9734759531674471,0.2667127574748984,0.9637760657954398
484,-0.2373980135,-0.2711476684,0.9112464786,-0.4176819921,0.009099999666000001,0.446950016,-0.03412500083,-1.666000018,-7.810599911000001,-0.5193999939,-0.20681014658470706,-0.978381093066302,0.24298017990326398,0.970031253194544
485,-0.22665949170000002,-0.27038061620000003,0.8840615748999999,-0.1587866098,0.009099999666000001,0.446950016,-0.03412500083,-1.666000018,-7.810599911000001,-0.5193999939,-0.18472605601718955,-0.9827900509408579,0.21910124015686977,0.9757021300385286
486,-0.2247419059,-0.27038061620000003,0.8393942714,-0.1284504235,0.05180000067,0.437324996,-0.11409999970000001,-1.1857999940000001,-7.624399972000001,-1.048600008,-0.162548282375597,-0.9867005908059158,0.1950903220161283,0.9807852804032304
487,-0.21860560769999998,-0.2696135938,0.9435767531,-0.0565806143,0.05180000067,0.437324996,-0.11409999970000001,-1.1857999940000001,-7.624399972000001,-1.048600008,-0.1402880730283598,-0.9901107294469592,0.17096188876030136,0.9852776423889412
488,-0.21438689530000002,-0.2699970901,0.9238286018,-0.06802689284,0.08172500133999999,0.4213999987,-0.1588999987,-1.156400007,-8.388800061,-1.430799979,-0.11795671715084566,-0.9930187374259337,0.14673047445536175,0.989176509964781
489,-0.210935235,-0.2699970901,0.86807549,-0.0510616079,0.08172500133999999,0.4213999987,-0.1588999987,-1.156400007,-8.388800061,-1.430799979,-0.09556554000009813,-0.9954231399583243,0.12241067519921628,0.99247953459871
490,-0.20518244800000002,-0.2699970901,0.9457567929999999,-0.03612393886,0.107275002,0.39899998659999997,-0.1609999967,-1.2054000329999999,-8.761199938999999,-1.430799979,-0.07312589717127639,-0.9973227176610868,0.09801714032956077,0.9951847266721968
491,-0.20211429890000002,-0.27038061620000003,0.8670033813,-0.0442459248,0.107275002,0.39899998659999997,-0.1609999967,-1.2054000329999999,-8.761199938999999,-1.430799979,-0.05064916883871266,-0.9987165071710528,0.07356456359966745,0.9972904566786902
492,-0.19904614980000002,-0.2699970901,0.7939223051000001,-0.017449166630000002,0.1275749993,0.371174984,-0.1930249953,-1.146599987,-8.653400159,-1.460200039,-0.028146753984505498,-0.999603801633495,0.04906767432741813,0.9987954562051724
493,-0.1936769038,-0.2696135938,0.8577100039,0.01232858002,0.1275749993,0.371174984,-0.1930249953,-1.146599987,-8.653400159,-1.460200039,-0.0056300646175665835,-0.9999841510606066,0.024541228522912267,0.9996988186962042
494,-0.1894581914,-0.27038061620000003,0.8530739545999999,-0.02912185341,0.140350008,0.327424984,-0.23362500670000003,-1.342599946,-8.623999953,-1.587600005,0.016889480013930838,-0.9998573625597098,6.123233995736766e-17,1.0
495,-0.1840889305,-0.27038061620000003,0.9183467031,-0.02965226397,0.140350008,0.327424984,-0.23362500670000003,-1.342599946,-8.623999953,-1.587600005,0.03940045921377586,-0.9992235004310815,-0.024541228522912142,0.9996988186962042
496,-0.1810207814,-0.2715311646,0.8392817974,-0.09137157351,0.16485000130000002,0.2698500013,-0.2656500053,-1.440599999,-8.486799967,-1.773799944,0.06189145662968165,-0.9980828861353431,-0.04906767432741801,0.9987954562051724
497,-0.17641855780000001,-0.2696135938,0.8458809257,0.0324629955,0.16485000130000002,0.2698500013,-0.2656500053,-1.440599999,-8.486799967,-1.773799944,0.0843510660430443,-0.996436098130433,-0.07356456359966734,0.9972904566786902
498,-0.1702822596,-0.27038061620000003,0.953843236,-0.01025926508,0.186200006,0.2133249927,-0.328650012,-1.21519998,-8.623999953,-1.773799944,0.10676789715355876,-0.9942839715782444,-0.09801714032956066,0.9951847266721969
499,-0.1679811478,-0.2707641423,0.8271637559,-0.0315031372,0.186200006,0.2133249927,-0.328650012,-1.21519998,-8.623999953,-1.773799944,0.129130581355761,-0.991627597921076,-0.12241067519921617,0.99247953459871
500,-0.1622283757,-0.2707641423,0.9040008187,-0.02664840035,0.20544999600000002,0.159950006,-0.4054750013,-1.1662000270000001,-8.359399855,-1.097600034,0.15142777750457667,-0.9884683243281114,-0.14673047445536164,0.989176509964781
501,-0.1564755887,-0.2711476684,0.9748569726999999,-0.03600705415,0.20544999600000002,0.159950006,-0.4054750013,-1.1662000270000001,-8.359399855,-1.097600034,0.17364817766692997,-0.9848077530122081,-0.17096188876030124,0.9852776423889412
502,-0.1511063278,-0.27268174289999997,1.010810971,-0.1050494462,0.207549994,0.1086750007,-0.49612500670000004,-1.1857999940000001,-7.6930002570000005,-0.7938000023,0.1957805128565233,-0.980647740417341,-0.1950903220161282,0.9807852804032304
503,-0.1465041041,-0.2738322914,0.988034904,-0.1378915757,0.2001999927,0.0553000015,-0.625274992,-0.9016000018000001,-7.2520000929999995,-0.8330000087999999,0.21781355874885125,-0.9759903962771154,-0.21910124015686966,0.9757021300385286
504,-0.1465041041,-0.2738322914,0.988034904,-0.1378915757,0.2001999927,0.0553000015,-0.625274992,-0.9016000018000001,-7.2520000929999995,-0.8330000087999999,0.23973614137357843,-0.9708380825448225,-0.24298017990326387,0.970031253194544
505,-0.13116335869999998,-0.2861048877,1.087557912,-0.6167733669,0.2001999927,0.0553000015,-0.625274992,-0.9016000018000001,-7.2520000929999995,-0.8330000087999999,0.2615371427813665,-0.9651934121955864,-0.2667127574748983,0.9637760657954398
506,-0.1261776239,-0.2880224884,1.249473572,-0.6593679786,0.16065000529999998,-0.02047499925,-0.7286999893,-0.5389999971,-8.18299979,-1.342599946,0.2832055066823035,-0.9590592479012022,-0.2902846772544622,0.9569403357322089
507,-0.1204248443,-0.29492580890000003,1.226399422,-0.8463652134,0.16065000529999998,-0.02047499925,-0.7286999893,-0.5389999971,-8.18299979,-1.342599946,0.3047302440530537,-0.952438700578345,-0.31368174039889146,0.9495281805930367
508,-0.1131379902,-0.3029797077,1.2782907490000002,-0.995631218,0.151025002,-0.053549999,-0.7682500267,-0.6958000228,-7.947799897,-2.048200062,0.3261004387098953,-0.9453351278108805,-0.33688985339221994,0.9415440651830208
509,-0.1043170616,-0.3091160059,1.3998827930000002,-1.109651923,0.151025002,-0.053549999,-0.7682500267,-0.6958000228,-7.947799897,-2.048200062,0.34730525284481945,-0.9377521321470808,-0.35989503653498817,0.9329927988347388
510,-0.09626317024,-0.3171698749,1.4587671759999998,-1.184245229,0.1340499973,-0.09939999699999999,-0.8727249813,-0.9016000018000001,-8.084999883,-1.76400007,0.3683339325218868,-0.9296935592726037,-0.3826834323650897,0.9238795325112867
511,-0.08859279752,-0.3229226768,1.478774667,-1.175910354,0.1340499973,-0.09939999699999999,-0.8727249813,-0.9016000018000001,-8.084999883,-1.76400007,0.3891758131310327,-0.9211634960601726,-0.40524131400498975,0.9142097557035307
512,-0.07862131298,-0.3282919228,1.6082408430000001,-1.15000236,0.08697499633,-0.14629999400000002,-1.005025005,-0.8231999889,-9.163000023,-2.097200015,0.40982032479658803,-0.9121662684969332,-0.42755509343028186,0.9039892931234434
513,-0.07095094025,-0.3328941464,1.592395663,-1.095493793,0.08697499633,-0.14629999400000002,-1.005025005,-0.8231999889,-9.163000023,-2.097200015,0.4302569977377454,-0.9027064394905476,-0.4496113296546067,0.8932243011955152
514,-0.06289704889,-0.3378798962,1.614845991,-1.0711535220000001,0.045499998330000006,-0.2072000027,-1.015700016,-0.8525999755,-9.69220022,-2.518599993,0.45047546757827284,-0.8927888065551317,-0.4713967368259977,0.881921264348355
515,-0.0563772358,-0.3409480453,1.525688529,-0.9567798972,0.045499998330000006,-0.2072000027,-1.015700016,-0.8525999755,-9.69220022,-2.518599993,0.47046548060275584,-0.882418399378219,-0.4928981922297839,0.8700869911087115
516,-0.04678926989,-0.34516674280000004,1.626620054,-0.9272401929,0.01014999971,-0.2658249927,-1.0179749679999999,-0.3430000015,-10.36839969,-2.136399949,0.4902168989567332,-0.8716004772699726,-0.5141027441932216,0.8577286100002721
517,-0.0383518599,-0.348618418,1.648705006,-0.8587076068,0.01014999971,-0.2658249927,-1.0179749679999999,-0.3430000015,-10.36839969,-2.136399949,0.5097197057880701,-0.860340526495947,-0.5349976198870969,0.8448535652497072
518,-0.032599080350000004,-0.3505360186,1.532349467,-0.7316736579,-0.002625000104,-0.327774992,-0.9591750240000001,-0.2646000069,-10.61339946,-2.126599929,0.5289640103269624,-0.848644257494751,-0.555570233019602,0.8314696123025455
519,-0.0260792654,-0.35437119009999996,1.450963855,-0.7434275746,-0.002625000104,-0.327774992,-0.9591750240000001,-0.2646000069,-10.61339946,-2.126599929,0.5479400529019981,-0.8365176019820237,-0.5758081914178453,0.8175848131515837
520,-0.01879241131,-0.3585898876,1.442245245,-0.7774294615,0.01662499979,-0.37887499329999996,-0.9667000294,-0.1568000074,-10.50560026,-1.92079995,0.5666382098897412,-0.8239667099421855,-0.5956993044924332,0.8032075314806449
521,-0.01073852088,-0.3616580367,1.4792230130000001,-0.7329097985999999,0.01662499979,-0.37887499329999996,-0.9667000294,-0.1568000074,-10.50560026,-1.92079995,0.5850489985953073,-0.8109979465095014,-0.6152315905806267,0.7883464276266063
522,-0.003451667493,-0.3674108386,1.4675421709999998,-0.8382155298999999,0.029399999080000003,-0.43434999469999996,-0.8792000294,-0.1077999994,-11.56399949,-1.12700002,0.6031630820614792,-0.7976178887400266,-0.6343932841636453,0.7730104533627371
523,0.004602223169,-0.3731636107,1.5050084590000001,-0.9199604392,0.03045000017,-0.437675004,-0.7148749732999999,0.2057999972,-11.80900042,-1.058400027,0.6209712738039045,-0.7838333222760794,-0.6531728429537765,0.7572088465064848
524,0.004602223169,-0.3731636107,1.5050084590000001,-0.9199604392,0.03045000017,-0.437675004,-0.7148749732999999,0.2057999972,-11.80900042,-1.058400027,0.6384645424699836,-0.7696512379049322,-0.6715589548470184,0.740951125354959
525,0.01955944858,-0.3885043561,1.358412266,-1.103218555,0.03045000017,-0.437675004,-0.7148749732999999,0.2057999972,-11.80900042,-1.058400027,0.6556340164190841,-0.7550788280134598,-0.6895405447370668,0.724247082951467
526,0.02569574676,-0.39310657979999997,1.4679663180000002,-1.113607287,0.037975001339999995,-0.43330000399999996,-0.580474968,0.1666000091,-11.75020001,-0.8036000222,0.6724709882217599,-0.7401234829405494,-0.7071067811865475,0.7071067811865476
527,0.03106500767,-0.39847582579999996,1.3682423830000001,-1.154319763,0.037975001339999995,-0.43330000399999996,-0.580474968,0.1666000091,-11.75020001,-0.8036000222,0.6889669190756864,-0.72479278722912,-0.7242470829514669,0.689540544737067
528,0.0383518599,-0.4069132507,1.38028276,-1.230343819,0.049699998499999995,-0.4173750067,-0.472675004,0.48019998740000003,-11.79919996,-0.45080000090000005,0.7051134431360797,-0.7090945157796544,-0.7409511253549589,0.6715589548470186
529,0.04640575126,-0.4107484221,1.4507696630000002,-1.168921113,0.049699998499999995,-0.4173750067,-0.472675004,0.48019998740000003,-11.79919996,-0.45080000090000005,0.7209023717584004,-0.6930366299071883,-0.7572088465064847,0.6531728429537766
530,0.05177501217,-0.4176517725,1.359271526,-1.172270179,0.067900002,-0.398125,-0.3830749893,0.5096000104999999,-11.52479999,-0.4115999945,0.736325697651197,-0.6766272733037577,-0.773010453362737,0.6343932841636455
531,0.05676075444,-0.42033639549999996,1.26125741,-1.007848501,0.067900002,-0.398125,-0.3830749893,0.5096000104999999,-11.52479999,-0.4115999945,0.7513755989369636,-0.6598747679083654,-0.7883464276266062,0.6152315905806269
532,0.06366408616000001,-0.4245550931,1.28941977,-0.9638541341,0.09029999732999999,-0.38115001200000004,-0.3393249893,0.2841999918,-11.38759942,-0.39199999119999995,0.7660444431189779,-0.6427876096865396,-0.8032075314806448,0.5956993044924335
533,0.06980038434,-0.42493861909999997,1.26817143,-0.7258660197,0.09029999732999999,-0.38115001200000004,-0.3393249893,0.2841999918,-11.38759942,-0.39199999119999995,0.7803247909520914,-0.6253744643216373,-0.8175848131515836,0.5758081914178454
534,0.07478612661,-0.4268562198,1.2017349,-0.6277151704,0.09134999632999999,-0.34475001340000005,-0.253925004,0.6075999901,-11.33859947,-0.303799995,0.7942094002155119,-0.6076441628200808,-0.8314696123025453,0.5555702330196022
535,0.08092242478999999,-0.42877379060000004,1.205618024,-0.5648394822999999,0.09134999632999999,-0.34475001340000005,-0.253925004,0.6075999901,-11.33859947,-0.303799995,0.8076912293856652,-0.5896056970327481,-0.8448535652497071,0.5349976198870972
536,0.08667520434,-0.4280067682,1.197032452,-0.3800589442,0.07419999598999999,-0.2871749973,-0.16642500400000002,0.4410000175,-11.26999977,-0.303799995,0.8207634412072763,-0.5712682150947924,-0.8577286100002721,0.5141027441932218
537,0.09204446524,-0.4276232421,1.173227429,-0.2519321144,0.07419999598999999,-0.2871749973,-0.16642500400000002,0.4410000175,-11.26999977,-0.303799995,0.8334194061608572,-0.5526410167861993,-0.8700869911087113,0.49289819222978415
538,0.09703020751000001,-0.4268562198,1.124823093,-0.13870804009999999,0.049699998499999995,-0.2061499953,-0.07244999766,0.3332000181,-11.26999977,-0.4214000143,0.8456527058248398,-0.5337335488154431,-0.8819212643483549,0.4713967368259978
539,0.1020159498,-0.42532214520000006,1.090842366,-0.025561317799999997,0.049699998499999995,-0.2061499953,-0.07244999766,0.3332000181,-11.26999977,-0.4214000143,0.8574571361306508,-0.5145554000286292,-0.8932243011955152,0.4496113296546069
540,0.10623465480000001,-0.4234045446,1.023271322,0.07534688711,0.03692499816,-0.1228499997,0.0267749995,0.39199999119999995,-11.03480046,-0.5683999836,0.8688267105090839,-0.4951162965465433,-0.9039892931234433,0.42755509343028203
541,0.1108368784,-0.4222539961,0.9975258112000001,0.11599490789999999,0.03692499816,-0.1228499997,0.0267749995,0.39199999119999995,-11.03480046,-0.5683999836,0.8797556629263599,-0.47542609683209547,-0.9142097557035307,0.40524131400498986
542,0.1150555834,-0.421486944,0.9524502754,0.12841801349999998,0.03692499816,-0.054599998,0.13772499800000002,0.5292000137,-11.14259965,-0.6566000164,0.8902384508083512,-0.45549478669063465,-0.9238795325112867,0.38268343236508984
543,0.1177402139,-0.4211034179,0.8381915689,0.1171384752,0.059325001839999995,0.004199999906,0.3255000067,0.950600028,-11.42680008,-0.6467999965,0.9002697578514743,-0.43533247420569005,-0.9329927988347388,0.35989503653498833
544,0.1177402139,-0.4211034179,0.8381915689,0.1171384752,0.059325001839999995,0.004199999906,0.3255000067,0.950600028,-11.42680008,-0.6467999965,0.9098444967188307,-0.41494938461269903,-0.9415440651830207,0.3368898533922203
545,0.12732817230000001,-0.4172682464,0.7566688061,0.2120534331,0.059325001839999995,0.004199999906,0.3255000067,0.950600028,-11.42680008,-0.6467999965,0.9189578116202306,-0.3943558551133187,-0.9495281805930367,0.3136817403988914
546,0.1284787357,-0.41343304509999995,0.7365261912000001,0.3824600577,0.109375,0.079975003,0.4226249933,0.5096000104999999,-10.65260012,-0.2939999934,0.9276050807747875,-0.3735623296329541,-0.9569403357322088,0.29028467725446233
547,0.1307798475,-0.4088308215,0.6729339956999999,0.5472745895000001,0.109375,0.079975003,0.4226249933,0.5096000104999999,-10.65260012,-0.2939999934,0.9357819187548356,-0.3525793535241652,-0.9637760657954398,0.2667127574748985
548,0.1330809593,-0.40039342640000003,0.6084396839,0.8439924121,0.19372499469999999,0.1034249973,0.47705000399999997,0.3626000047,-8.86899972,-0.38220000789999997,0.9434841787099804,-0.3314175682186354,-0.970031253194544,0.24298017990326404
549,0.13461503390000001,-0.39157250520000003,0.5182152986999999,1.087675452,0.19372499469999999,0.1034249973,0.47705000399999997,0.3626000047,-8.86899972,-0.38220000789999997,0.9507079544701582,-0.31008770583041095,-0.9757021300385285,0.21910124015687002
550,0.13653261960000002,-0.3789163828,0.4480258822,1.412206888,0.245,0.09275000333999998,0.3202499866,0.9309999883,-8.486799967,-0.6272000298,0.9574495825266355,-0.28860058371315095,-0.9807852804032304,0.19509032201612858
551,0.1357655823,-0.3697119355,0.30198282,1.527778506,0.245,0.09275000333999998,0.3202499866,0.9309999883,-8.486799967,-0.6272000298,0.963705643889941,-0.26696709897415155,-0.9852776423889412,0.1709618887603012
552,0.13729965689999998,-0.35743933920000004,0.28675735,1.76754272,0.2833250093,0.039375,0.314824996,0.5292000137,-8.859199846000001,-1.028999968,0.9694729658237923,-0.24519822294792457,-0.989176509964781,0.1467304744553618
553,0.13729965689999998,-0.34670081729999996,0.2282825857,1.8647092580000002,0.2833250093,0.039375,0.314824996,0.5292000137,-8.859199846000001,-1.028999968,0.974748623454138,-0.2233049956321244,-0.99247953459871,0.12241067519921635
554,0.1388337314,-0.334428221,0.2464653999,2.021183729,0.2983749866,-0.02047499925,0.36714999200000004,0.6272000298,-8.800400019,-1.420999959,0.9795299412524945,-0.20129852008866028,-0.9951847266721968,0.09801714032956084
555,0.1415183693,-0.3236896992,0.3300962746,2.056641817,0.2983749866,-0.02047499925,0.36714999200000004,0.6272000298,-8.800400019,-1.420999959,0.9838144943928289,-0.17918995681282587,-0.9972904566786902,0.07356456359966775
556,0.14497002960000002,-0.31103357670000004,0.42204323409999994,2.176910162,0.273700006,-0.08977500199999999,0.3436999893,0.7252000093000001,-7.849799991,-1.25440006,0.9876001099813017,-0.15699051807329292,-0.9987954562051724,0.04906767432741797
557,0.1495722532,-0.29914450649999996,0.5483440160999999,2.226555824,0.273700006,-0.08977500199999999,0.3436999893,0.7252000093000001,-7.849799991,-1.25440006,0.9908848681582388,-0.1347114622258615,-0.9996988186962042,0.024541228522912326
558,0.1545580029,-0.28878951070000003,0.6708288193,2.177082539,0.2598750067,-0.1580249953,0.19967499730000002,0.7545999959,-7.947799897,-1.028999968,0.9936671030717829,-0.11236408800382322,-1.0,1.2246467991473532e-16
559,0.1583931893,-0.2761333883,0.6985497475,2.268894911,0.2598750067,-0.1580249953,0.19967499730000002,0.7545999959,-7.947799897,-1.028999968,0.9959454037227213,-0.08995972878786132,-0.9996988186962042,-0.024541228522912083
560,0.1614613384,-0.2650113702,0.6306257248,2.2548987869999997,0.2673999953,-0.175175004,0.1559249973,-0.7938000023,-8.457399762,-1.332800072,0.9977186146800707,-0.06750974685836525,-0.9987954562051724,-0.049067674327417724
561,0.1645294875,-0.2542728484,0.6665229797,2.226973057,0.2673999953,-0.175175004,0.1559249973,-0.7938000023,-8.457399762,-1.332800072,0.9989858366670474,-0.045025527633103114,-0.9972904566786902,-0.0735645635996675
562,0.1672141105,-0.2469859868,0.6301168799,2.023650646,0.23852500199999999,-0.1741249967,0.06405000150000001,-1.372000006,-9.045399785,-0.8330000087999999,0.999746427017133,-0.022518473893146825,-0.9951847266721969,-0.09801714032956059
563,0.1698987484,-0.24200023710000002,0.6037765741,1.74742794,0.1436750007,-0.1741249967,0.011900000130000001,-2.1756000280000003,-11.23080027,0.02940000026,1.0,-2.4492935982947064e-16,-0.99247953459871,-0.1224106751992161
564,0.1698987484,-0.24200023710000002,0.6037765741,1.74742794,0.1436750007,-0.1741249967,0.011900000130000001,-2.1756000280000003,-11.23080027,0.02940000026,1.0,0.0,-0.989176509964781,-0.14673047445536158
565,0.1683646739,-0.22359134260000002,0.1775043607,1.533445954,0.1436750007,-0.1741249967,0.011900000130000001,-2.1756000280000003,-11.23080027,0.02940000026,0.9997102471260579,0.024071181756536848,-0.9852776423889413,-0.17096188876030097
566,0.1683646739,-0.22052319350000002,0.1440646499,1.441520214,0.05180000067,-0.1259999967,-0.0169750005,-3.332000035,-11.80900042,0.2841999918,0.9988411564176876,0.04812841412488742,-0.9807852804032304,-0.19509032201612836
567,0.1664470732,-0.2189891189,0.005773968995000001,1.206190348,0.05180000067,-0.1259999967,-0.0169750005,-3.332000035,-11.80900042,0.2841999918,0.9973932315179498,0.07215775580061608,-0.9757021300385286,-0.21910124015686983
568,0.1652965248,-0.2170715332,-0.042439147829999996,0.9197520018,-0.111474998,-0.054599998,-0.0875,-3.4692000210000002,-12.56359947,1.313200033,0.9953673115076467,0.09614528164210384,-0.970031253194544,-0.24298017990326382
569,0.1645294875,-0.2178385705,-0.07734306902,0.6318023205,-0.111474998,-0.054599998,-0.0875,-3.4692000210000002,-12.56359947,1.313200033,0.9927645704190688,0.12007709074024805,-0.96377606579544,-0.26671275747489825
570,0.16491299869999998,-0.2189891189,-0.04229192063,0.39740529659999996,-0.292774992,0.02117500067,-0.1471749973,-2.802800131,-12.289199499999999,1.881600016,0.9895865165556373,0.14393931447411912,-0.9569403357322089,-0.29028467725446216
571,0.166063562,-0.2224407941,0.02830410004,0.10703673960000001,-0.292774992,0.02117500067,-0.1471749973,-2.802800131,-12.289199499999999,1.881600016,0.9858349916178332,0.16771812454790588,-0.9495281805930368,-0.3136817403988912
572,0.1633789241,-0.2285770923,-0.1187732965,-0.2521706223,-0.402675004,0.081025002,-0.19197500469999998,-0.950600028,-11.43660054,1.6365999580000001,0.981512169635921,0.19139974100449278,-0.9415440651830208,-0.3368898533922201
573,0.1606943011,-0.23586393890000001,-0.2308268845,-0.5794196129,-0.402675004,0.081025002,-0.19197500469999998,-0.950600028,-11.43660054,1.6365999580000001,0.9766205557100867,0.21497044021102407,-0.932992798834739,-0.3598950365349881
574,0.1587767005,-0.2439178377,-0.2574447691,-0.8540083766,-0.4038999987,0.09169999598999999,-0.079975003,-0.06860000212,-10.96619959,0.7252000093000001,0.9711629845587164,0.23841656281182783,-0.9238795325112867,-0.38268343236508967
575,0.1564755887,-0.2523552477,-0.3143419325,-1.076861501,-0.4038999987,0.09169999598999999,-0.079975003,-0.06860000212,-10.96619959,0.7252000093000001,0.9651426188756621,0.2617245216440913,-0.9142097557035307,-0.4052413140049897
576,0.1557085514,-0.2584915459,-0.2755672634,-1.115101457,-0.28104999070000003,0.16747499470000002,0.05337499916999999,0.8133999690000001,-9.662800014,-0.8525999755,0.9585629474974413,0.2848808096116999,-0.9039892931234434,-0.4275550934302818
577,0.1545580029,-0.2611761689,-0.2774326503,-0.9654052258,-0.28104999070000003,0.16747499470000002,0.05337499916999999,0.8133999690000001,-9.662800014,-0.8525999755,0.951427783381437,0.3078720075126765,-0.8932243011955153,-0.44961132965460665
578,0.1545580029,-0.2657783926,-0.1786999255,-0.9622845054000001,-0.1200500023,0.2089499927,0.07909999967,1.714999971,-7.624399972000001,-1.783599964,0.9437412613962662,0.330684791815687,-0.881921264348355,-0.47139673682599764
579,0.15225689109999999,-0.27038061620000003,-0.2488517314,-0.9488477111,-0.1200500023,0.2089499927,0.07909999967,1.714999971,-7.624399972000001,-1.783599964,0.935507835925601,0.35330594238110236,-0.8700869911087115,-0.4928981922297839
580,0.1503392905,-0.2711476684,-0.2932164967,-0.7452077866,0.0005249999883000001,0.21752500530000002,-0.1055250037,1.587600005,-8.408399807999999,-3.184999883,0.9267322782868261,0.37572235012214616,-0.8577286100002721,-0.5141027441932216
581,0.14918874199999999,-0.26654544469999997,-0.3028611541,-0.3063892424,0.0005249999883000001,0.21752500530000002,-0.1055250037,1.587600005,-8.408399807999999,-3.184999883,0.9174196739660343,0.39792102460168566,-0.8448535652497072,-0.5349976198870969
582,0.1438194811,-0.2611761689,-0.5103142262,0.059910871090000005,0.1361500037,0.227149992,-0.1737750053,-0.117600001,-8.379000187,-3.557400054,0.907575419670957,0.4198891015602646,-0.8314696123025455,-0.555570233019602
583,0.1369161457,-0.2542728484,-0.7549558282,0.4076128304,0.148925004,0.1461250067,-0.4086250067,-1.273999953,-11.59339969,-3.283000082,0.8972052202035421,0.44161385037101525,-0.8175848131515837,-0.5758081914178453
584,0.1369161457,-0.2542728484,-0.7549558282,0.4076128304,0.148925004,0.1461250067,-0.4086250067,-1.273999953,-11.59339969,-3.283000082,0.8863150851539875,0.46308268141713077,-0.8032075314806449,-0.5956993044924332
585,0.11237095300000001,-0.2274265289,-1.46092093,1.350182056,0.148925004,0.1461250067,-0.4086250067,-1.273999953,-11.59339969,-3.283000082,0.8749113254181496,0.4842831533876195,-0.7883464276266063,-0.6152315905806267
586,0.10585113609999999,-0.222057268,-1.5850865840000001,1.426251054,0.02625,-0.03850000083,-0.35945001600000004,-3.380999988,-14.24919996,-3.488800061,0.8630005495403431,0.5052029804871164,-0.7730104533627371,-0.6343932841636453
587,0.09319502115,-0.2105517089,-1.8400385380000002,1.653790355,0.02625,-0.03850000083,-0.35945001600000004,-3.380999988,-14.24919996,-3.488800061,0.8505896598836507,0.5258300395555731,-0.7572088465064848,-0.6531728429537765
588,0.07862131298,-0.202497825,-2.1349415780000003,1.6386308669999998,-0.2159500027,-0.240274992,-0.3297000027,-3.243800002,-15.47419996,-2.351999947,0.8376858486299648,0.5461523770936969,-0.740951125354959,-0.6715589548470184
589,0.06634871662000001,-0.196745038,-2.2260048390000002,1.5984694959999999,-0.2159500027,-0.240274992,-0.3297000027,-3.243800002,-15.47419996,-2.351999947,0.8242965936120766,0.5661582161900743,-0.724247082951467,-0.6895405447370668
590,0.05100797489,-0.18907468019999998,-2.4574501509999997,1.512053013,-0.4583250093,-0.39497499469999997,-0.20580000399999998,-3.2241999630000002,-15.71919973,-0.5586000003,0.8104296539802289,0.5858359633459579,-0.7071067811865477,-0.7071067811865475
591,0.0383518599,-0.1821713448,-2.480702162,1.471519709,-0.4583250093,-0.39497499469999997,-0.20580000399999998,-3.2241999630000002,-15.71919973,-0.5586000003,0.7960930657056438,0.6051742151937651,-0.6895405447370672,-0.7242470829514667
592,0.0218605604,-0.1752680093,-2.6929717060000002,1.438969851,-0.5521249866,-0.4439750147,-0.001049999977,-3.596600133,-13.18100028,1.283799973,0.7812951369236315,0.6241617651053962,-0.6715589548470187,-0.7409511253549588
593,0.007670372258999999,-0.16951522230000002,-2.872110605,1.362471819,-0.5521249866,-0.4439750147,-0.001049999977,-3.596600133,-13.18100028,1.283799973,0.7660444431189781,0.6427876096865393,-0.6531728429537771,-0.7572088465064842
594,-0.014573707250000002,-0.1645294875,-3.1420924660000003,1.269277096,-0.5318249893,-0.429100008,0.005425000042,-2.3324000540000003,-12.14219964,1.979600069,0.7503498221564023,0.6610409551532003,-0.6343932841636459,-0.7730104533627367
595,-0.03221556172,-0.160310775,-3.243234396,1.169540882,-0.5318249893,-0.429100008,0.005425000042,-2.3324000540000003,-12.14219964,1.979600069,0.7342203691589633,0.678911223586763,-0.6152315905806274,-0.7883464276266059
596,-0.0521585308,-0.1557085514,-3.4366908069999997,1.120974898,-0.4273500013,-0.4012750053,0.1526000047,-2.8714001239999996,-11.5836004,1.91099993,0.7176654312373829,0.6963880590639542,-0.5956993044924332,-0.803207531480645
597,-0.07325205207,-0.1514898539,-3.657274723,1.045554876,-0.4273500013,-0.4012750053,0.1526000047,-2.8714001239999996,-11.5836004,1.91099993,0.7006946020733427,0.7134613336581598,-0.5758081914178452,-0.8175848131515837
598,-0.09204446524,-0.1472711414,-3.688378811,0.9888408184,-0.2630249953,-0.310625,0.221025002,-2.410800067,-9.868599701,2.244200021,0.6833177163598895,0.7301211533086175,-0.5555702330196022,-0.8314696123025452
599,-0.1127544716,-0.1457370669,-3.806016922,0.8088138103,-0.2630249953,-0.310625,0.221025002,-2.410800067,-9.868599701,2.244200021,0.6655448441021745,0.7463578635540811,-0.5349976198870973,-0.8448535652497071
600,-0.132313922,-0.1468876302,-3.8289284710000002,0.5367642045000001,-0.1231999993,-0.2369499993,0.21349999670000003,-2.4010000469999997,-10.86819968,1.332800072,0.6473862847818277,0.7621620551276365,-0.5141027441932219,-0.857728610000272
601,-0.1534074396,-0.1457370669,-3.9344339369999997,0.45384594799999994,-0.1231999993,-0.2369499993,0.21349999670000003,-2.4010000469999997,-10.86819968,1.332800072,0.6288525613883484,0.7775245694094262,-0.49289819222978426,-0.8700869911087113
602,-0.17258337140000002,-0.1453535557,-3.912920952,0.3497291505,-0.021875,-0.13877499699999998,0.41300000670000003,-1.783599964,-10.78979952,1.470000058,0.6099544143209731,0.7924365037341217,-0.47139673682599786,-0.8819212643483549
603,-0.1925263405,-0.1438194811,-3.9352571960000002,0.33630883689999996,0.08487499832999999,-0.06527500033,0.3554249907,-1.74440003,-9.202200103,1.273999953,0.5907027951645513,0.8068892165500703,-0.44961132965460693,-0.8932243011955152
604,-0.1925263405,-0.1438194811,-3.9352571960000002,0.33630883689999996,0.08487499832999999,-0.06527500033,0.3554249907,-1.74440003,-9.202200103,1.273999953,0.5711088603430403,0.8208743324271223,-0.4275550934302825,-0.9039892931234431
605,-0.23586393890000001,-0.132313922,-3.758044243,0.649963975,0.08487499832999999,-0.06527500033,0.3554249907,-1.74440003,-9.202200103,1.273999953,0.5511839646542931,0.8343837469102422,-0.40524131400499036,-0.9142097557035305
606,-0.2466024607,-0.1300128102,-3.723065138,0.7074018121,0.16169999599999998,-0.060900000329999995,0.249725008,-1.8228000430000002,-8.761199938999999,1.352399966,0.5309396546898869,0.8474096312160865,-0.38268343236509034,-0.9238795325112865
607,-0.2634772956,-0.12272595609999999,-3.635207176,0.8997707367000001,0.16169999599999998,-0.060900000329999995,0.249725008,-1.8228000430000002,-8.761199938999999,1.352399966,0.5103876621438085,0.8599444367698286,-0.35989503653498794,-0.932992798834739
608,-0.2803521156,-0.1146720648,-3.566271305,1.036488652,0.196875,-0.07805000067000001,0.1111249983,-1.470000058,-9.084599864,1.23480002,0.4895398970138685,0.8719808995796015,-0.33688985339221994,-0.9415440651830208
609,-0.2960763574,-0.1089192852,-3.4639256,1.071799994,0.196875,-0.07805000067000001,0.1111249983,-1.470000058,-9.084599864,1.23480002,0.4684084406997904,0.8835120444460228,-0.31368174039889146,-0.9495281805930367
610,-0.31103357670000004,-0.10470058019999999,-3.3309895989999996,1.0168853999999998,0.203349998,-0.09292499900000001,0.050224998,-1.401400065,-9.496199822000001,0.9408000082,0.44700553900196904,0.8945311890043628,-0.2902846772544624,-0.9569403357322088
611,-0.3244567513,-0.1020159498,-3.1517167089999996,0.8870435356999999,0.203349998,-0.09292499900000001,0.050224998,-1.401400065,-9.496199822000001,0.9408000082,0.42534359502496005,0.9050319475970132,-0.26671275747489853,-0.9637760657954398
612,-0.3405645192,-0.09856428206000001,-3.165453911,0.8292086124,0.1777999973,-0.07805000067000001,0.09292499900000001,-1.0192000209999998,-9.995999813,0.7644000157999999,0.40343516198980856,0.9150082349740121,-0.24298017990326412,-0.970031253194544
613,-0.35322064159999994,-0.09549613297000001,-3.009933233,0.7764552236,0.1777999973,-0.07805000067000001,0.09292499900000001,-1.0192000209999998,-9.995999813,0.7644000157999999,0.3812929359593851,0.9244542698194823,-0.2191012401568701,-0.9757021300385285
614,-0.36510971189999997,-0.09281150252,-2.840562105,0.7183039188,0.1627500033,-0.055650001170000005,0.1569750047,-1.048600008,-9.643200266000001,0.9408000082,0.35892974848094605,0.933364578101936,-0.19509032201612866,-0.9807852804032303
615,-0.3773823082,-0.08935983479000001,-2.7388763430000003,0.7188366652,0.1627500033,-0.055650001170000005,0.1569750047,-1.048600008,-9.643200266000001,0.9408000082,0.33635855915017526,0.9417339962465081,-0.17096188876030172,-0.9852776423889411
616,-0.39042195679999997,-0.08629168570000001,-2.714366674,0.7000419497,0.1436750007,-0.002274999917,0.1015000033,-1.146599987,-9.40799979,1.2054000329999999,0.31359244810102704,0.9495576741272773,-0.14673047445536233,-0.9891765099647809
617,-0.4011604488,-0.08245649933999999,-2.567452431,0.7176426053,0.1436750007,-0.002274999917,0.1015000033,-1.146599987,-9.40799979,1.2054000329999999,0.29064460842571105,0.9568310778779424,-0.12241067519921596,-0.9924795345987101
618,-0.4130495489,-0.07938835025,-2.519938946,0.6939629912,0.1340499973,0.01907500058,0.0694750005,-0.8231999889,-10.07439997,0.8330000087999999,0.267528338529221,0.9635499925192229,-0.09801714032956045,-0.9951847266721969
619,-0.4237880707,-0.08015538752000001,-2.43607831,0.4717750847,0.1340499973,0.01907500058,0.0694750005,-0.8231999889,-10.07439997,0.8330000087999999,0.24425703442283112,0.9697105244014648,-0.07356456359966736,-0.9972904566786902
620,-0.4337595403,-0.07900483161,-2.319902658,0.4166274369,0.109375,0.005250000209,0.11427500369999999,-0.9016000018000001,-10.96619959,0.43119999770000006,0.22084418196103228,0.9753091034610322,-0.04906767432741803,-0.9987954562051724
621,-0.44373103979999995,-0.07938835025,-2.234603405,0.29671651120000003,0.109375,0.005250000209,0.11427500369999999,-0.9016000018000001,-10.96619959,0.43119999770000006,0.19730334902640026,0.9803424852891802,-0.02454122852291239,-0.9996988186962042
622,-0.45562011,-0.07823779434,-2.277867794,0.2815304995,0.08487499832999999,0.0169750005,0.273174994,-1.068199974,-10.96619959,0.3233999982,0.17364817766693041,0.984807753012208,-1.8369701987210297e-16,-1.0
623,-0.4632904828,-0.07632020116,-2.080796957,0.2969530821,0.09450000167000001,0.031850000919999996,0.293475008,-0.7350000292000001,-10.23120029,0.4214000143,0.1498923761903932,0.9887023189818044,0.02454122852291202,-0.9996988186962042
624,-0.4632904828,-0.07632020116,-2.080796957,0.2969530821,0.09450000167000001,0.031850000919999996,0.293475008,-0.7350000292000001,-10.23120029,0.4214000143,0.1260497112202894,0.9920239262746043,0.04906767432741767,-0.9987954562051724
625,-0.4870686233,-0.06558167933999999,-2.002100229,0.6158595085,0.09450000167000001,0.031850000919999996,0.293475008,-0.7350000292000001,-10.23120029,0.4214000143,0.10213399971801453,0.9947706500000896,0.073564563599667,-0.9972904566786902
626,-0.49473899600000004,-0.05944538489,-1.9851554630000001,0.8147903084999999,0.1020249987,0.013825000380000002,0.271074996,-0.9114000216,-9.358999836,0.6174000099,0.07815910097584866,0.9969408984160731,0.09801714032956009,-0.9951847266721969
627,-0.5012587905,-0.05330908671,-1.9114393,0.9757386445999999,0.1020249987,0.013825000380000002,0.271074996,-0.9114000216,-9.358999836,0.6174000099,0.05413890858541761,0.9985334138511238,0.1224106751992156,-0.9924795345987101
628,-0.5116138458,-0.04487167671,-1.948965192,1.1100766659999999,0.07419999598999999,-0.01715000033,0.164325006,-0.950600028,-9.192400229,0.4214000143,0.03008734238627735,0.9995472734333934,0.14673047445536194,-0.9891765099647809
629,-0.5189006925,-0.03911889717,-1.8171000480000001,1.178892493,0.07419999598999999,-0.01715000033,0.164325006,-0.950600028,-9.192400229,0.4214000143,0.006018340399285462,0.9999818896254263,0.17096188876030133,-0.9852776423889412
630,-0.5273380876,-0.031832043080000004,-1.77958107,1.181668043,0.01662499979,-0.048125,0.13772499800000002,-0.6566000164,-9.721599841,-0.2939999934,-0.018054149250560092,0.9998370105646412,0.19509032201612828,-0.9807852804032304
631,-0.5346249342,-0.02492870949,-1.6887097359999999,1.235116005,0.01662499979,-0.048125,0.13772499800000002,-0.6566000164,-9.721599841,-0.2939999934,-0.04211617641714245,0.9991127202092865,0.21910124015686974,-0.9757021300385286
632,-0.5434458852,-0.02109352313,-1.7041510340000001,1.105867863,-0.01434999987,-0.054599998,0.2155999947,-1.313200033,-9.888199449,-0.08819999619999999,-0.06615379701741152,0.9978094382897864,0.24298017990326376,-0.970031253194544
633,-0.5507327318,-0.015724262219999997,-1.640596867,1.095529199,-0.01434999987,-0.054599998,0.2155999947,-1.313200033,-9.888199449,-0.08819999619999999,-0.09015308111206528,0.9959279200655042,0.2667127574748982,-0.96377606579544
634,-0.55686903,-0.01265611406,-1.528617024,0.96866256,-0.029224999249999998,-0.0684250015,0.283849988,-1.430799979,-9.907800364,0.05880000051,-0.1141001209780247,0.9934692558870658,0.2902846772544621,-0.9569403357322089
635,-0.5641558766,-0.008437409066,-1.5109418630000002,0.9358572959999999,-0.029224999249999998,-0.0684250015,0.283849988,-1.430799979,-9.907800364,0.05880000051,-0.13798103916804283,0.9904348705644945,0.31368174039889113,-0.9495281805930368
636,-0.5695251226,-0.004218704533,-1.3997163769999998,0.9092158079000001,-0.02817500025,-0.07595000267,0.3213000107,-1.538600051,-10.45660031,0.17639999239999998,-0.16178199655276473,0.9868265225415261,0.3368898533922196,-0.9415440651830209
637,-0.5748943686,-0.0007670372142,-1.30046308,0.8462961912000001,-0.02817500025,-0.07595000267,0.3213000107,-1.538600051,-10.45660031,0.17639999239999998,-0.18548920034057947,0.9826463028765805,0.35989503653498767,-0.9329927988347391
638,-0.5806471704999999,-0.0003835186071,-1.250689507,0.6354002357,-0.008924999833,-0.100449996,0.3554249907,-1.352399966,-10.3977999,0.4018000111,-0.20908891207062705,0.9778966340309806,0.38268343236509,-0.9238795325112866
639,-0.5875505209,-0.0,-1.289414883,0.48769491909999996,-0.008924999833,-0.100449996,0.3554249907,-1.352399966,-10.3977999,0.4018000111,-0.2325674555743102,0.9725802684651232,0.40524131400499,-0.9142097557035306
640,-0.5913856626,-0.0,-1.157714009,0.3619869947,-0.022924998999999998,-0.09625,0.4140499973,-1.3818000259999998,-10.69179962,0.117600001,-0.25591122490071744,0.9667002870434116,0.4275550934302822,-0.9039892931234433
641,-0.5967549682,-0.0007670372142,-1.134501576,0.22520668800000002,-0.022924998999999998,-0.09625,0.4140499973,-1.3818000259999998,-10.69179962,0.117600001,-0.2791066922013468,0.960260097248877,0.4496113296546066,-0.8932243011955153
642,-0.6017407178999999,0.0003835186071,-1.102135539,0.2280589342,-0.018549998999999998,-0.07700000167,0.5655999947,-1.646399978,-10.20180008,0.7839999825,-0.3021404155695724,0.9532634312085227,0.4713967368259976,-0.881921264348355
643,-0.606726408,0.001150555792,-1.080717444,0.2110581994,-0.0005249999883000001,-0.06527500033,0.5944750214,-1.362199986,-9.731399715,0.8525999755,-0.3249990468303075,0.9457143435305354,0.49289819222978387,-0.8700869911087115
644,-0.606726408,0.001150555792,-1.080717444,0.2110581994,-0.0005249999883000001,-0.06527500033,0.5944750214,-1.362199986,-9.731399715,0.8525999755,-0.3476693392753473,0.9376172089546156,0.5141027441932214,-0.8577286100002722
645,-0.615547359,0.0061362977139999995,-0.9135342836,0.3336818814,-0.0005249999883000001,-0.06527500033,0.5944750214,-1.362199986,-9.731399715,0.8525999755,-0.37013815533991445,0.9289767198167914,0.5349976198870969,-0.8448535652497073
646,-0.6182320118,0.009971483611,-0.9051877856,0.47032052280000003,0.005950000063,-0.07805000067000001,0.6093499947,-1.6856000569999998,-8.878800177999999,0.5389999971,-0.3923924742159502,0.919797883330183,0.5555702330196018,-0.8314696123025456
647,-0.6220671535,0.01380666997,-0.8624393344,0.5484142303,0.005950000063,-0.07805000067000001,0.6093499947,-1.6856000569999998,-8.878800177999999,0.5389999971,-0.4144193993977515,0.9100860186832929,0.5758081914178449,-0.817584813151584
648,-0.6262859106,0.01725833677,-0.8696448206999999,0.5832408667,0.02835000008,-0.07700000167,0.5176499987,-1.175999974,-8.359399855,-0.07840000372,-0.4362061661555675,0.8998467539575066,0.5956993044924328,-0.8032075314806453
649,-0.6289705038000001,0.02109352313,-0.8069295287,0.6339614987,0.02835000008,-0.07700000167,0.5176499987,-1.175999974,-8.359399855,-0.07840000372,-0.45774014893283343,0.8890860228655872,0.6152315905806269,-0.7883464276266061
650,-0.6301210522999999,0.02377815358,-0.6580332518,0.6159159541,-0.021875,-0.100449996,0.4780999947,-1.058400027,-9.26099993,0.235200002,-0.4790088686627554,0.8778100613130537,0.6343932841636456,-0.7730104533627369
651,-0.6312716007,0.02454519086,-0.5342690945,0.49064829950000005,-0.021875,-0.100449996,0.4780999947,-1.058400027,-9.26099993,0.235200002,-0.4999999999999998,0.8660254037844388,0.6531728429537768,-0.7572088465064846
652,-0.6308881044,0.02492870949,-0.36636480689999995,0.3747299314,-0.066674999,-0.08014999866,0.585899992,-1.460200039,-8.770999813,0.39199999119999995,-0.5207013784633021,0.8537388795565171,0.6715589548470183,-0.7409511253549592
653,-0.6316551565999999,0.02531222813,-0.3155701756,0.300023824,-0.066674999,-0.08014999866,0.585899992,-1.460200039,-8.770999813,0.39199999119999995,-0.5411010074848541,0.8409576087406998,0.6895405447370668,-0.7242470829514671
654,-0.6320386528999999,0.02531222813,-0.25996142629999996,0.2259840816,-0.065625,-0.04287500083,0.5507249879999999,-0.8036000222,-8.457399762,0.6860000029000001,-0.5611870653623819,0.8276889981568909,0.7071067811865475,-0.7071067811865477
655,-0.6305046082,0.02646278404,-0.10605187710000001,0.22818923,-0.065625,-0.04287500083,0.5507249879999999,-0.8036000222,-8.457399762,0.6860000029000001,-0.5809479121098947,0.8139407370411891,0.7242470829514667,-0.6895405447370672
656,-0.6305046082,0.02531222813,-0.06957103312000001,0.1049894989,-0.062299999,-0.005425000042,0.5283250093,-0.6075999901,-8.849399972,0.9603999749,-0.6003720962031182,0.799720792589935,0.7409511253549588,-0.6715589548470187
657,-0.6305046082,0.0260792654,-0.055314972999999996,0.11072263119999999,-0.062299999,-0.005425000042,0.5283250093,-0.6075999901,-8.849399972,0.9603999749,-0.619448361215723,0.7850374053426723,0.7572088465064842,-0.6531728429537771
658,-0.6282034516,0.02569574676,0.08410408348,0.0554889515,-0.065625,0.0169750005,0.5262249947,-0.43119999770000006,-8.839600098,1.038799988,-0.6381656523424856,0.7698990844067097,0.7730104533627367,-0.6343932841636459
659,-0.6278199553,0.0260792654,0.0981394127,0.052363716069999997,-0.065625,0.0169750005,0.5262249947,-0.43119999770000006,-8.839600098,1.038799988,-0.656513122805613,0.754314602526043,0.7883464276266059,-0.6152315905806274
660,-0.6285870075,0.02722982131,0.03311411291,0.09794521332,-0.07192500234,0.038325001000000004,0.5111749839999999,-0.1372000042,-8.829800224,0.950600028,-0.6744801401405138,0.7382929909974988,0.803207531480645,-0.5956993044924332
661,-0.6278199553,0.02722982131,0.06843086332000001,0.07088015229,-0.07192500234,0.038325001000000004,0.5111749839999999,-0.1372000042,-8.829800224,0.950600028,-0.6920562923573692,0.7218435344370493,0.8175848131515837,-0.5758081914178452
662,-0.6270529032,0.02799685858,0.09098236263000001,0.09366733581,-0.067724998,0.07770000099999999,0.5025999879999999,0.235200002,-9.074799991,0.9309999883,-0.7092313939749444,0.70497576539932,0.8314696123025452,-0.5555702330196022
663,-0.62436831,0.02799685858,0.2134589553,0.06907086074,-0.07944999932999999,0.09799999832999999,0.4919250107,0.24500000370000002,-8.575,0.7938000023,-0.7259954919231306,0.6876994588534235,0.8448535652497071,-0.5349976198870973
664,-0.62436831,0.02799685858,0.2134589553,0.06907086074,-0.07944999932999999,0.09799999832999999,0.4919250107,0.24500000370000002,-8.575,0.7938000023,-0.7423388713108097,0.6700246265183044,0.857728610000272,-0.5141027441932219
665,-0.6193825603,0.029914451760000006,0.3006705046,0.1079319492,-0.07944999932999999,0.09799999832999999,0.4919250107,0.24500000370000002,-8.575,0.7938000023,-0.7582520610556864,0.6519615110608935,0.8700869911087113,-0.49289819222978426
666,-0.6186155081,0.02953093313,0.3048150837,0.06982814521000001,-0.09012500167000001,0.127924999,0.41300000670000003,0.9603999749,-8.86899972,0.6467999965,-0.7737258393728361,0.633520580160424,0.8819212643483549,-0.4713967368259979
667,-0.6166979074,0.029147414489999995,0.326826185,0.0298483558,-0.09012500167000001,0.127924999,0.41300000670000003,0.9603999749,-8.86899972,0.6467999965,-0.788751239118783,0.6147125204423481,0.8932243011955151,-0.449611329654607
668,-0.6151638627,0.0302979704,0.33739125729999997,0.08296871185,-0.09432499766,0.16957499269999998,0.38202499869999995,0.8428000286,-8.888600051000001,0.9016000018000001,-0.8033195529880093,0.5955482312853804,0.9039892931234431,-0.42755509343028253
669,-0.6166979074,0.02876389585,0.1621003747,-0.023426696659999996,-0.09432499766,0.16957499269999998,0.38202499869999995,0.8428000286,-8.888600051000001,0.9016000018000001,-0.8174223385588916,0.5760388185052401,0.9142097557035305,-0.4052413140049904
