,leftJointPosition,rightJointPosition,leftJointVelocity,rightJointVelocity,imuGyroX,imuGyroY,imuGyroZ,imuAccX,imuAccY,imuAccZ,leftGaitPhaseX,leftGaitPhaseY,rightGaitPhaseX,rightGaitPhaseY
225,-0.5077786446,0.09242798388000001,0.28646788,0.2502947748,0.280175004,0.36592499729999994,0.002274999917,-3.038000023,-11.27980022,-0.8525999755,-0.9414232964118892,-0.33722718895867865,1.0,-2.4492935982947064e-16
226,-0.5070115924,0.09242798388000001,0.2405160517,0.19095051289999998,0.2129750013,0.41072498799999996,0.12057499769999999,-3.3417999089999997,-10.68200033,-0.2841999918,-0.9334433940693829,-0.35872472742791334,1.0,0.0
227,-0.5058610439,0.09204446524,0.2412682027,0.125258714,0.2129750013,0.41072498799999996,0.12057499769999999,-3.3417999089999997,-10.68200033,-0.2841999918,-0.9249726657195533,-0.38003364018421265,0.9997102471260579,0.024071181756536848
228,-0.5031763911,0.09089390934000001,0.3265989721,0.0380930528,0.1020249987,0.4703999853,0.1473500013,-3.7043999139999997,-10.91719964,0.3136000149,-0.9160155654662072,-0.40114272251110905,0.9988411564176876,0.04812841412488742
229,-0.5008752942,0.08859279752,0.36176005009999995,-0.09166560322,0.1020249987,0.4703999853,0.1473500013,-3.7043999139999997,-10.91719964,0.3136000149,-0.9065768031586863,-0.42204087476757096,0.9973932315179498,0.07215775580061608
230,-0.4993412197,0.08705872297,0.34732910990000004,-0.14313599470000002,0.01014999971,0.502424984,0.1601249933,-4.076800083999999,-11.88740058,1.0192000209999998,-0.8966613419153181,-0.4427171082244519,0.9953673115076467,0.09614528164210384
231,-0.497423619,0.08744224161,0.3506685197,-0.08621881157,0.01014999971,0.502424984,0.1601249933,-4.076800083999999,-11.88740058,1.0192000209999998,-0.8862743955136966,-0.463160550842612,0.9927645704190688,0.12007709074024805
232,-0.4935884476,0.08705872297,0.4613834918,-0.08645303547000001,-0.022924998999999998,0.5195750093,0.17080000399999998,-4.23360011,-12.847799900000002,1.734600011,-0.875421425649156,-0.4833604529896908,0.9895865165556373,0.14393931447411912
233,-0.49397197369999996,0.08552464843,0.3340342045,-0.1470850408,0.002799999937,0.520625,0.23275000329999998,-4.125800037,-12.41659961,1.6953999309999999,-0.8641081390628881,-0.5033061930925075,0.9858349916178332,0.16771812454790588
234,-0.49397197369999996,0.08552464843,0.3340342045,-0.1470850408,0.002799999937,0.520625,0.23275000329999998,-4.125800037,-12.41659961,1.6953999309999999,-0.8523404845412028,-0.522987283222133,0.981512169635921,0.19139974100449278
235,-0.49128732090000005,0.08092242478999999,0.2878228724,-0.2847808003,0.002799999937,0.520625,0.23275000329999998,-4.125800037,-12.41659961,1.6953999309999999,-0.8401246497875238,-0.5423933746086789,0.9766205557100867,0.21497044021102407
236,-0.4909038246,0.07862131298,0.2416966707,-0.362751931,0.029399999080000003,0.5174749947,0.225224998,-4.4295999230000005,-11.61299944,0.7350000292000001,-0.827467058168748,-0.5615142630829228,0.9711629845587164,0.23841656281182783
237,-0.4889862239,0.07133445889,0.2820401788,-0.6590139866,0.029399999080000003,0.5174749947,0.225224998,-4.4295999230000005,-11.61299944,0.7350000292000001,-0.8143743653376944,-0.580339894441893,0.9651426188756621,0.2617245216440913
238,-0.48284992579999997,0.06251353025,0.5243637562,-0.9615324736,-0.01014999971,0.5057499933,0.23275000329999998,-4.23360011,-11.20140007,-1.352399966,-0.8008534557334064,-0.5988603697356012,0.9585629474974413,0.2848808096116999
239,-0.47594660520000004,0.05177501217,0.7455485463,-1.286073327,-0.01014999971,0.5057499933,0.23275000329999998,-4.23360011,-11.20140007,-1.352399966,-0.7869114389611577,-0.6170659504721357,0.951427783381437,0.3078720075126765
240,-0.4671256542,0.03873537853,1.021933675,-1.6407694819999998,-0.08049999833,0.5152000093,0.251825006,-3.7828000719999997,-9.986200522999999,-1.76400007,-0.7725556460540552,-0.6349470637383887,0.9437412613962662,0.330684791815687
241,-0.45868825909999994,0.02492870949,1.200374365,-1.942356467,-0.08049999833,0.5152000093,0.251825006,-3.7828000719999997,-9.986200522999999,-1.76400007,-0.7577936256182167,-0.6524943072337092,0.935507835925601,0.35330594238110236
242,-0.45063436030000004,0.01112203952,1.3208686109999999,-2.15627861,-0.056000000829999994,0.5813500214,0.2700250053,-2.920400077,-9.594199729,-2.067799956,-0.7426331398635382,-0.6696984542138518,0.9267322782868261,0.37572235012214616
243,-0.44373103979999995,-0.003451667493,1.343865395,-2.348118305,-0.056000000829999994,0.5813500214,0.2700250053,-2.920400077,-9.594199729,-2.067799956,-0.7270821605221448,-0.6865504583426116,0.9174196739660343,0.39792102460168566
244,-0.43644416329999997,-0.01879241131,1.377763391,-2.5337357519999997,0.0005249999883000001,0.592025032,0.27754999399999997,-2.861599958,-8.859199846000001,-1.5484000709999999,-0.711148864656673,-0.7030414584485932,0.907575419670957,0.4198891015602646
245,-0.43145844340000006,-0.034133154900000004,1.278680682,-2.680341244,0.0005249999883000001,0.592025032,0.27754999399999997,-2.861599958,-8.859199846000001,-1.5484000709999999,-0.6948416303605797,-0.719162783184622,0.8972052202035421,0.44161385037101525
246,-0.424171567,-0.04640575126,1.329852819,-2.631424189,0.020825001,0.498224988,0.21997499469999998,-2.547999907,-8.702400112000001,-1.734600011,-0.6781690323527513,-0.7349059555873343,0.8863150851539875,0.46308268141713077
247,-0.42033639549999996,-0.05791131034,1.177638769,-2.540732145,0.020825001,0.498224988,0.21997499469999998,-2.547999907,-8.702400112000001,-1.734600011,-0.661139837468717,-0.7502626975345625,0.8749113254181496,0.4842831533876195
248,-0.41420009729999996,-0.06941686571000001,1.176999927,-2.467175007,-0.003674999885,0.3925250053,0.136674999,-2.244200021,-8.731799733999999,-1.9991999630000001,-0.643763000050847,-0.76522493409816,0.8630005495403431,0.5052029804871164
249,-0.4099813998,-0.07977186888,1.09020102,-2.357026577,-0.003674999885,0.3925250053,0.136674999,-2.244200021,-8.731799733999999,-1.9991999630000001,-0.6260476572399494,-0.779784797789987,0.8505896598836507,0.5258300395555731
250,-0.4049956501,-0.08974335343,1.063533068,-2.256853342,-0.0442749995,0.2794750047,0.12810000300000002,-2.224599981,-9.065000117,-2.3421999280000003,-0.6080031241707577,-0.7939346326988124,0.8376858486299648,0.5461523770936969
251,-0.4007769525,-0.09971483797,0.9984495640000001,-2.193171978,-0.0442749995,0.2794750047,0.12810000300000002,-2.224599981,-9.065000117,-2.3421999280000003,-0.589638889073813,-0.8076669985159723,0.8242965936120766,0.5661582161900743
252,-0.3950241506,-0.1104533598,1.036100864,-2.064678431,-0.12215000029999999,0.1909249973,0.1174250007,-2.126599929,-8.751400065,-2.126599929,-0.5709646082863364,-0.8209746744476534,0.8104296539802289,0.5858359633459579
253,-0.3888878822,-0.1169731766,1.0839953420000001,-1.967370749,-0.20964999199999998,0.127924999,0.08540000199999999,-2.2147999609999998,-8.359399855,-1.773799944,-0.5519901011747049,-0.8338506630117524,0.7960930657056438,0.6051742151937651
254,-0.3888878822,-0.1169731766,1.0839953420000001,-1.967370749,-0.20964999199999998,0.127924999,0.08540000199999999,-2.2147999609999998,-8.359399855,-1.773799944,-0.5327253449712017,-0.846288193717314,0.7812951369236315,0.6241617651053962
255,-0.3731636107,-0.1361491084,1.198778868,-1.6732167009999999,-0.20964999199999998,0.127924999,0.08540000199999999,-2.2147999609999998,-8.359399855,-1.773799944,-0.5131804695277611,-0.858280726624609,0.7660444431189781,0.6427876096865393
256,-0.368177861,-0.1411348432,1.2812541720000001,-1.667439342,-0.2747499967,0.09275000333999998,0.027825000580000002,-2.126599929,-8.065400136000001,-1.5190000119999998,-0.4933657519894543,-0.869821955783987,0.7503498221564023,0.6610409551532003
257,-0.3612745404,-0.1480381787,1.313608885,-1.59910357,-0.2747499967,0.09275000333999998,0.027825000580000002,-2.126599929,-8.065400136000001,-1.5190000119999998,-0.4732916113905339,-0.8809058125516892,0.7342203691589633,0.678911223586763
258,-0.3520700932,-0.1537909657,1.393757343,-1.477274299,-0.3141250134,0.06930000067000001,0.002274999917,-2.3715999869999997,-8.222199868999999,-1.499399972,-0.4529686031758648,-0.8915264687808803,0.7176654312373829,0.6963880590639542
259,-0.3478513658,-0.1599272639,1.328495741,-1.40938127,-0.3141250134,0.06930000067000001,0.002274999917,-2.3715999869999997,-8.222199868999999,-1.499399972,-0.4324074136506286,-0.9016783398862225,0.7006946020733427,0.7134613336581598
260,-0.3405645192,-0.166063562,1.298298597,-1.35880661,-0.30992498399999996,0.059675001500000005,0.005425000042,-2.254000041,-8.496599841,-1.156400007,-0.4116188543612179,-0.9113560877803794,0.6833177163598895,0.7301211533086175
261,-0.3374963701,-0.17066578570000002,1.178329945,-1.233715415,-0.30992498399999996,0.059675001500000005,0.005425000042,-2.254000041,-8.496599841,-1.156400007,-0.3906138564102794,-0.9205546236809034,0.6655448441021745,0.7463578635540811
262,-0.32982599739999996,-0.17641855780000001,1.207206249,-1.206301212,-0.2747499967,0.057574999329999994,0.03954999983,-2.244200021,-8.545599794,-1.097600034,-0.3694034647088841,-0.9292691107860371,0.6473862847818277,0.7621620551276365
263,-0.3267578483,-0.1810207814,1.107667446,-1.1300315859999999,-0.2747499967,0.057574999329999994,0.03954999983,-2.244200021,-8.545599794,-1.097600034,-0.34799883216886224,-0.9374949668180134,0.6288525613883484,0.7775245694094262
264,-0.3221556246,-0.1852394938,1.0645108220000001,-1.052615404,-0.2416750073,0.07244999766,0.05670000017000001,-2.3715999869999997,-8.68279978,-1.097600034,-0.32641121383834487,-0.9452278664325223,0.6099544143209731,0.7924365037341217
265,-0.3187039495,-0.18907468019999998,0.9648249745,-0.9790997505,-0.2416750073,0.07244999766,0.05670000017000001,-2.3715999869999997,-8.68279978,-1.097600034,-0.3046519609835998,-0.9524637434930776,0.5907027951645513,0.8068892165500703
266,-0.3152523041,-0.19214282929999998,0.8915449381,-0.8915187715999999,-0.207549994,0.09275000333999998,0.07805000067000001,-2.46960004,-8.359399855,-0.9016000018000001,-0.282732515120278,-0.9591987932090833,0.5711088603430403,0.8208743324271223
267,-0.3114171028,-0.19521097839999998,0.8636689186,-0.8110926151000001,-0.207549994,0.09275000333999998,0.07805000067000001,-2.46960004,-8.359399855,-0.9016000018000001,-0.2606644019971967,-0.9654294741364818,0.5511839646542931,0.8343837469102422
268,-0.3083489537,-0.1975120753,0.7662747501999999,-0.7190179229000001,-0.17552499530000001,0.1130500007,0.09292499900000001,-2.3715999869999997,-8.408399807999999,-0.8428000286,-0.23845922553583862,-0.9711525100399258,0.5309396546898869,0.8474096312160865
269,-0.3045137823,-0.20019671320000001,0.7650644779000001,-0.6772089004999999,-0.17552499530000001,0.1130500007,0.09292499900000001,-2.3715999869999997,-8.408399807999999,-0.8428000286,-0.21612866172874234,-0.9763648916154979,0.5103876621438085,0.8599444367698286
270,-0.30374673010000003,-0.202497825,0.6382973789999999,-0.6343469620000001,-0.1434999967,0.1386000013,0.03745000184,-2.0089999819999997,-7.800800037,-0.49979999070000003,-0.1936844524999971,-0.9810638780730725,0.4895398970138685,0.8719808995796015
271,-0.29914450649999996,-0.20441541079999997,0.714479208,-0.5708506107,-0.1434999967,0.1386000013,0.03745000184,-2.0089999819999997,-7.800800037,-0.49979999070000003,-0.171138399531068,-0.9852469985774859,0.4684084406997904,0.8835120444460228
272,-0.2964598835,-0.2086341232,0.6329699159000001,-0.6164168715,-0.10185000300000001,0.16852500199999998,0.01925000042,-2.351999947,-8.241800201,-0.5978000067,-0.14850235805520468,-0.988912053547758,0.44700553900196904,0.8945311890043628
273,-0.29300820829999996,-0.2101681978,0.6823493242,-0.5496046543,-0.039899999500000005,0.2005500007,-0.05215000033,-2.136399949,-7.5851998929999995,-0.5782000035,-0.12578823062367753,-0.9920571158136836,0.42534359502496005,0.9050319475970132
274,-0.29300820829999996,-0.2101681978,0.6823493242,-0.5496046543,-0.039899999500000005,0.2005500007,-0.05215000033,-2.136399949,-7.5851998929999995,-0.5782000035,-0.10300796084715473,-0.9946805316291815,0.40343516198980856,0.9150082349740121
275,-0.2830367386,-0.21515393260000001,0.6966258287,-0.4960979223,-0.039899999500000005,0.2005500007,-0.05215000033,-2.136399949,-7.5851998929999995,-0.5782000035,-0.08017352711546728,-0.9967809215418729,0.3812929359593851,0.9244542698194823
276,-0.281119138,-0.21553745870000002,0.7260370851000001,-0.4618483186,-0.007874999791,0.21,-0.1161999977,-2.361799967,-7.800800037,-0.9211999685,-0.05729693629910055,-0.9983571811184296,0.35892974848094605,0.933364578101936
277,-0.2776674628,-0.2189891189,0.7537113428,-0.5236512422999999,-0.007874999791,0.21,-0.1161999977,-2.361799967,-7.800800037,-0.9211999685,-0.0343902174357038,-0.9994084815253096,0.33635855915017526,0.9417339962465081
278,-0.27306523920000003,-0.2197561562,0.7543637156,-0.43257462979999994,0.0442749995,0.21857499600000002,-0.130024997,-2.312800014,-8.447599888,-1.058400027,-0.01146541540494912,-0.9999342699645772,0.31359244810102704,0.9495576741272773
279,-0.27038061620000003,-0.2209067196,0.6884787083,-0.3746483028,0.0442749995,0.21857499600000002,-0.130024997,-2.312800014,-8.447599888,-1.058400027,0.011465415404948753,-0.9999342699645772,0.29064460842571105,0.9568310778779424
280,-0.2657783926,-0.2247419059,0.7421912551000001,-0.4437175393,0.08277500033,0.207900002,-0.22400000329999997,-1.969800049,-8.418200266,-0.6369999766,0.03439021743570344,-0.9994084815253096,0.267528338529221,0.9635499925192229
281,-0.26040914649999997,-0.2274265289,0.8311017156,-0.4921702445,0.08277500033,0.207900002,-0.22400000329999997,-1.969800049,-8.418200266,-0.6369999766,0.0572969362990993,-0.9983571811184296,0.24425703442283112,0.9697105244014648
282,-0.2581080198,-0.2301111668,0.7420118451000001,-0.5053445101,0.08592499732999999,0.16747499470000002,-0.2422000027,-2.42059994,-8.418200266,-0.8722000152,0.08017352711546692,-0.9967809215418729,0.22084418196103228,0.9753091034610322
283,-0.2542728484,-0.2312617153,0.7456664443000001,-0.4420562387,0.08592499732999999,0.16747499470000002,-0.2422000027,-2.42059994,-8.418200266,-0.8722000152,0.1030079608471535,-0.9946805316291816,0.19730334902640026,0.9803424852891802
284,-0.2496706098,-0.2335628271,0.7966201305,-0.4460094869,0.1190000033,0.1321250033,-0.3083500147,-1.8521999569999998,-7.830200242999999,-1.558199945,0.12578823062367714,-0.9920571158136837,0.17364817766693041,0.984807753012208
285,-0.24621894960000001,-0.2373980135,0.7732310890999999,-0.5303909183,0.1190000033,0.1321250033,-0.3083500147,-1.8521999569999998,-7.830200242999999,-1.558199945,0.1485023580552034,-0.9889120535477582,0.1498923761903932,0.9887023189818044
286,-0.24200023710000002,-0.2408496886,0.8025079965999999,-0.5761076808,0.107275002,0.04567499816000001,-0.4523750067,-1.313200033,-8.506399715,-1.264199933,0.1711383995310676,-0.985246998577486,0.1260497112202894,0.9920239262746043
287,-0.2385485768,-0.2439178377,0.7676008343999999,-0.5890699028999999,0.107275002,0.04567499816000001,-0.4523750067,-1.313200033,-8.506399715,-1.264199933,0.19368445249999586,-0.9810638780730727,0.10213399971801453,0.9947706500000896
288,-0.2339463532,-0.2489035726,0.7943015695000001,-0.685710907,0.1041249967,-0.015050000249999999,-0.512050004,-1.666000018,-7.369599748,-1.372000006,0.21612866172874196,-0.9763648916154979,0.07815910097584866,0.9969408984160731
289,-0.2270430177,-0.2535057962,0.9509314298999999,-0.7458771467,0.1041249967,-0.015050000249999999,-0.512050004,-1.666000018,-7.369599748,-1.372000006,0.23845922553583737,-0.9711525100399261,0.05413890858541761,0.9985334138511238
290,-0.222057268,-0.2600256205,0.9655966759000001,-0.8455099463,0.09869999766000001,-0.127050004,-0.625274992,-0.9114000216,-7.545999813,-1.8914000359999998,0.2606644019971964,-0.965429474136482,0.03008734238627735,0.9995472734333934
291,-0.2147704214,-0.2646278441,1.0999046559999999,-0.9077077508,0.09869999766000001,-0.127050004,-0.625274992,-0.9114000216,-7.545999813,-1.8914000359999998,0.2827325151202777,-0.9591987932090834,0.006018340399285462,0.9999818896254263
292,-0.2090176344,-0.2711476684,1.120182276,-0.9580594301,0.112700001,-0.214550004,-0.7341250134,-0.9995999812999999,-7.24220022,-2.107000035,0.3046519609835995,-0.9524637434930777,-0.018054149250560092,0.9998370105646412
293,-0.2017307878,-0.27881804109999997,1.212684393,-1.110756755,0.1340499973,-0.3095750093,-0.9005499840000001,-0.9309999883,-7.281399715,-2.146199968,0.3264112138383446,-0.9452278664325224,-0.04211617641714245,0.9991127202092865
294,-0.2017307878,-0.27881804109999997,1.212684393,-1.110756755,0.1340499973,-0.3095750093,-0.9005499840000001,-0.9309999883,-7.281399715,-2.146199968,0.3479988321688611,-0.9374949668180138,-0.06615379701741152,0.9978094382897864
295,-0.1810207814,-0.29492580890000003,1.419855714,-1.18541944,0.1340499973,-0.3095750093,-0.9005499840000001,-0.9309999883,-7.281399715,-2.146199968,0.3694034647088838,-0.9292691107860374,-0.09015308111206528,0.9959279200655042
296,-0.1775691211,-0.2972269058,1.4556337590000001,-1.184099913,0.1286249983,-0.398125,-1.024274979,-1.077999994,-8.03599993,-2.459799874,0.39061385641027907,-0.9205546236809035,-0.1141001209780247,0.9934692558870658
297,-0.1675976366,-0.3029797077,1.60573709,-1.174033046,0.1286249983,-0.398125,-1.024274979,-1.077999994,-8.03599993,-2.459799874,0.4116188543612176,-0.9113560877803795,-0.13798103916804283,0.9904348705644945
298,-0.1591602266,-0.3068148792,1.63612771,-1.054648638,0.10307499769999999,-0.46427501200000004,-1.102149992,-0.8917999819,-8.379000187,-2.518599993,0.4324074136506275,-0.901678339886223,-0.16178199655276473,0.9868265225415261
299,-0.1507228166,-0.3137182295,1.64581871,-1.13417542,0.10307499769999999,-0.46427501200000004,-1.102149992,-0.8917999819,-8.379000187,-2.518599993,0.45296860317586446,-0.8915264687808805,-0.18548920034057947,0.9826463028765805
300,-0.14075133199999998,-0.317553401,1.740174294,-1.043984413,0.07630000234,-0.5124000120000001,-1.194025059,-0.7742000356000001,-9.15320015,-2.302999994,0.4732916113905328,-0.8809058125516899,-0.20908891207062705,0.9778966340309806
301,-0.131930396,-0.3213886023,1.741567135,-0.9761321545,0.07630000234,-0.5124000120000001,-1.194025059,-0.7742000356000001,-9.15320015,-2.302999994,0.4933657519894539,-0.8698219557839872,-0.2325674555743102,0.9725802684651232
302,-0.12157540019999999,-0.3263743222,1.8257086280000001,-0.9746029377,0.05617500067000001,-0.5572000027,-1.220625,-0.5292000137,-9.790200126,-1.734600011,0.5131804695277606,-0.8582807266246092,-0.25591122490071744,0.9667002870434116
303,-0.1119874343,-0.32982599739999996,1.844712973,-0.8984562159,0.05617500067000001,-0.5572000027,-1.220625,-0.5292000137,-9.790200126,-1.734600011,0.5327253449712014,-0.8462881937173143,-0.2791066922013468,0.960260097248877
304,-0.10009835660000001,-0.3336611986,1.9825141430000002,-0.8626742959,0.0486499995,-0.5762750053,-1.2036499790000001,-0.2841999918,-10.20180008,-1.12700002,0.5519901011747046,-0.8338506630117526,-0.3021404155695724,0.9532634312085227
305,-0.09166094661,-0.33826342229999995,1.905601501,-0.8655954003,0.0486499995,-0.5762750053,-1.2036499790000001,-0.2841999918,-10.20180008,-1.12700002,0.5709646082863353,-0.8209746744476542,-0.3249990468303075,0.9457143435305354
306,-0.08245649933999999,-0.3447832167,1.8861573930000002,-0.9808793068,0.039025000330000004,-0.5775,-1.139600048,0.048999998899999994,-11.34839993,-0.9211999685,0.5896388890738127,-0.8076669985159726,-0.3476693392753473,0.9376172089546156
307,-0.07056742162,-0.34900194409999996,2.017011166,-0.9484155773999999,0.039025000330000004,-0.5775,-1.139600048,0.048999998899999994,-11.34839993,-0.9211999685,0.6080031241707574,-0.7939346326988126,-0.37013815533991445,0.9289767198167914
308,-0.06289704889,-0.3547547162,1.895902038,-0.9518890977,0.03587499917,-0.5538749933,-0.9870000267,0.17639999239999998,-12.00500023,-0.7839999825,0.626047657239949,-0.7797847977899872,-0.3923924742159502,0.919797883330183
309,-0.05445964262,-0.35820639130000004,1.8486629719999998,-0.9291443825,0.03587499917,-0.5538749933,-0.9870000267,0.17639999239999998,-12.00500023,-0.7839999825,0.6437630000508459,-0.7652249340981608,-0.4144193993977515,0.9100860186832929
310,-0.04678926989,-0.36510971189999997,1.7759873869999998,-0.9867342709999999,0.03255000025,-0.499450016,-0.8109500027,0.1274000026,-12.60280013,-0.1274000026,0.661139837468717,-0.7502626975345625,-0.4362061661555675,0.8998467539575066
311,-0.039502415810000004,-0.370862484,1.697437406,-1.038668275,0.03255000025,-0.499450016,-0.8109500027,0.1274000026,-12.60280013,-0.1274000026,0.6781690323527504,-0.7349059555873352,-0.45774014893283343,0.8890860228655872
312,-0.03298259899,-0.3743141592,1.59558785,-0.9570545554000001,0.02625,-0.4184249973,-0.6359500027,-0.09799999780999999,-12.39699986,0.02940000026,0.6948416303605793,-0.7191627831846223,-0.4790088686627554,0.8778100613130537
313,-0.02722982131,-0.3769987822,1.478487968,-0.8453698158,0.039025000330000004,-0.3351249933,-0.499275012,-0.1077999994,-12.11279943,-0.048999998899999994,0.7111488646566725,-0.7030414584485938,-0.4999999999999998,0.8660254037844388
314,-0.02722982131,-0.3769987822,1.478487968,-0.8453698158,0.039025000330000004,-0.3351249933,-0.499275012,-0.1077999994,-12.11279943,-0.048999998899999994,0.7270821605221445,-0.6865504583426119,-0.5207013784633021,0.8537388795565171
315,-0.0130396327,-0.38466915490000003,1.253826141,-0.6738189459,0.039025000330000004,-0.3351249933,-0.499275012,-0.1077999994,-12.11279943,-0.048999998899999994,0.7426331398635376,-0.6696984542138524,-0.5411010074848541,0.8409576087406998
316,-0.01073852088,-0.3865867555,1.243317246,-0.7045066953,0.06457500099999999,-0.229599998,-0.35735000130000005,0.01960000093,-11.44639983,0.03920000186,0.7577936256182162,-0.6524943072337098,-0.5611870653623819,0.8276889981568909
317,-0.006903334986,-0.38927137850000004,1.113245845,-0.6555136442,0.06457500099999999,-0.229599998,-0.35735000130000005,0.01960000093,-11.44639983,0.03920000186,0.772555646054055,-0.6349470637383889,-0.5809479121098947,0.8139407370411891
318,-0.0019175930650000002,-0.3919560313,1.077774525,-0.6318032742,0.08067500234,-0.14,-0.2411499953,0.07840000372,-10.87800014,-0.2939999934,0.7869114389611572,-0.6170659504721363,-0.6003720962031182,0.799720792589935
319,0.002684630221,-0.39080545310000003,1.04017508,-0.40408620240000004,0.08067500234,-0.14,-0.2411499953,0.07840000372,-10.87800014,-0.2939999934,0.8008534557334062,-0.5988603697356014,-0.619448361215723,0.7850374053426723
320,0.006903334986,-0.3896549046,0.9426770806,-0.2239211202,0.10622500300000001,-0.049174999000000004,-0.127924999,0.03920000186,-9.780400252,-0.6860000029000001,0.8143743653376939,-0.5803398944418936,-0.6381656523424856,0.7698990844067097
321,0.009971483611,-0.38927137850000004,0.8934733272,-0.130338937,0.10622500300000001,-0.049174999000000004,-0.127924999,0.03920000186,-9.780400252,-0.6860000029000001,0.8274670581687475,-0.5615142630829235,-0.656513122805613,0.754314602526043
322,0.014957225880000003,-0.3896549046,0.9082135558,-0.1164805293,0.142450006,0.02117500067,-0.11935000300000001,0.4115999945,-9.417800247999999,-0.8525999755,0.8401246497875231,-0.5423933746086799,-0.6744801401405138,0.7382929909974988
323,0.01994296722,-0.3881208301,0.9258494973,-0.01132558938,0.142450006,0.02117500067,-0.11935000300000001,0.4115999945,-9.417800247999999,-0.8525999755,0.8523404845412027,-0.5229872832221333,-0.6920562923573692,0.7218435344370493
324,0.02646278404,-0.38620322939999996,1.012239814,0.09385849535,0.16922500129999998,0.06597499967,-0.07244999766,0.6075999901,-9.65300014,-1.097600034,0.8641081390628877,-0.5033061930925081,-0.7092313939749444,0.70497576539932
325,0.03106500767,-0.385052681,0.9893171787,0.1198266298,0.16922500129999998,0.06597499967,-0.07244999766,0.6075999901,-9.65300014,-1.097600034,0.8754214256491559,-0.4833604529896911,-0.7259954919231306,0.6876994588534235
326,0.03796834126,-0.3808339834,1.0889865159999998,0.3064643443,0.232225008,0.1225,0.005425000042,1.038799988,-9.339400089,-1.136799967,0.8862743955136962,-0.4631605508426127,-0.7423388713108097,0.6700246265183044
327,0.04410463944,-0.37853285670000003,1.133041978,0.3528552353,0.232225008,0.1225,0.005425000042,1.038799988,-9.339400089,-1.136799967,0.8966613419153178,-0.44271710822445265,-0.7582520610556864,0.6519615110608935
328,0.04909038171,-0.3773823082,1.103450298,0.329169482,0.2726499987,0.128974998,-0.02345000058,0.9114000216,-9.633399808,-1.264199933,0.9065768031586858,-0.42204087476757207,-0.7737258393728361,0.633520580160424
329,0.05292556807,-0.3754647076,1.006559134,0.3460454345,0.2726499987,0.128974998,-0.02345000058,0.9114000216,-9.633399808,-1.264199933,0.9160155654662072,-0.40114272251110894,-0.788751239118783,0.6147125204423481
330,0.05944538489,-0.37201306219999997,1.078289986,0.4265058935,0.31972500800000003,0.11077499869999999,0.0651000005,0.882000035,-10.11359947,-0.9898000345,0.9249726657195532,-0.38003364018421293,-0.8033195529880093,0.5955482312853804
331,0.06558167933999999,-0.3677943349,1.10648632,0.5426991582,0.31972500800000003,0.11077499869999999,0.0651000005,0.882000035,-10.11359947,-0.9898000345,0.9334433940693826,-0.3587247274279141,-0.8174223385588916,0.5760388185052401
332,0.07133445889,-0.3608910143,1.1276502609999999,0.7660655379000001,0.3772999907,0.06597499967,0.12180000070000001,0.6958000228,-9.251200056,-0.5978000067,0.9414232964118888,-0.3372271889586794,-0.8310514231861302,0.5561955879187712
333,0.07670371979,-0.35322064159999994,1.124599576,0.9654707909,0.4263000107,-0.01295000017,-0.0169750005,0.8428000286,-8.692600237999999,-0.3626000047,0.9489081767308694,-0.3155523286767145,-0.8441989087368449,0.5360300387921559
334,0.07670371979,-0.35322064159999994,1.124599576,0.9654707909,0.4263000107,-0.01295000017,-0.0169750005,0.8428000286,-8.692600237999999,-0.3626000047,0.9558940993040882,-0.2937115437221119,-0.856857176167589,0.5155538571770221
335,0.08859279752,-0.3282919228,1.015856147,1.486862659,0.4263000107,-0.01295000017,-0.0169750005,0.8428000286,-8.692600237999999,-0.3626000047,0.9623773907727678,-0.2717163184819771,-0.8690188899396283,0.4947789091383102
336,0.09127742797,-0.3233061731,0.9916753769,1.604302406,0.43697498799999995,-0.134575001,-0.084174999,0.8917999819,-9.388400042,-0.4018000111,0.968354642073129,-0.24957821855166387,-0.8806770022699278,0.4737172338778204
337,0.09587965161,-0.3141017258,0.9582493901000001,1.669789791,0.43697498799999995,-0.134575001,-0.084174999,0.8917999819,-9.388400042,-0.4018000111,0.9738227102289506,-0.2273088846533307,-0.8918247572153822,0.452381036757427
338,0.1008653939,-0.30719840530000003,1.016359448,1.604035497,0.4189500093,-0.235899992,-0.07892500401000001,0.5586000003,-10.01559956,-0.43119999770000006,0.9787787200042221,-0.20492002651497146,-0.902455694587925,0.4307826822259989
339,0.10623465480000001,-0.3022126555,1.023280382,1.445752025,0.4189500093,-0.235899992,-0.07892500401000001,0.5586000003,-10.01559956,-0.43119999770000006,0.9832200654150073,-0.18242341671317555,-0.9125636536982431,0.4089346866541319
340,0.1112203971,-0.2972269058,1.017598987,1.329344034,0.371875,-0.3043249893,-0.02869999975,0.2841999918,-10.80940044,-0.5389999971,0.9871444110997311,-0.15983088448283467,-0.9221427769259329,0.38684971108083954
341,0.11658965800000001,-0.29109063739999996,1.0335035320000001,1.300001025,0.371875,-0.3043249893,-0.02869999975,0.2841999918,-10.80940044,-0.5389999971,0.9905496935471656,-0.13715430949706323,-0.9311875131140245,0.36454055387640816
342,0.12272595609999999,-0.2861048877,1.0421495440000001,1.220300317,0.3388000107,-0.33845000270000003,0.06405000150000001,0.37239998799999996,-10.14299967,-0.5292000137,0.9934341221814738,-0.1144056156205835,-0.9396926207859083,0.3420201433256689
343,0.1257940978,-0.2822696865,0.9773613811,1.105260968,0.3388000107,-0.33845000270000003,0.06405000150000001,0.37239998799999996,-10.14299967,-0.5292000137,0.9957961803037324,-0.09159676463989548,-0.9476531711828023,0.31930153013598017
344,0.13116335869999998,-0.281119138,0.9513016343,0.8808303475,0.25882499929999997,-0.3522749853,0.027825000580000002,0.3332000181,-10.28999953,-1.068199974,0.99763462588945,-0.0687397499734847,-0.9550645511199953,0.2963978798742695
345,0.13423150779999998,-0.2792015374,0.8576259017,0.7503728867,0.25882499929999997,-0.3522749853,0.027825000580000002,0.3332000181,-10.28999953,-1.068199974,0.9989484922416502,-0.04584659036541053,-0.9619224656602138,0.273322465337511
346,0.13768318300000001,-0.2761333883,0.8571478723999999,0.7221223116,0.21087500329999997,-0.3160499907,0.136674999,-1.068199974,-9.839199495,-1.136799967,0.9997370884991839,-0.0229293235655776,-0.9682229406025633,0.2500886588610631
347,0.1384502202,-0.2749828398,0.6860577464000001,0.5965325236,0.21087500329999997,-0.3160499907,0.136674999,-1.068199974,-9.839199495,-1.136799967,1.0,-2.4492935982947064e-16,-0.9739623247856002,0.22670992456932496
348,0.13768318300000001,-0.2707641423,0.4320982397,0.6410951614,0.1436750007,-0.2658249927,0.1408750033,-1.264199933,-9.94699986,-0.2939999934,1.0,0.0,-0.9791372922032012,0.20319981057319653
349,0.1369161457,-0.2715311646,0.2625637352,0.424852401,0.1436750007,-0.2658249927,0.1408750033,-1.264199933,-9.94699986,-0.2939999934,0.9997011578430937,0.024445756424744464,-0.9837448439320027,0.17957194111887195
350,0.13729965689999998,-0.2699970901,0.2212461084,0.3917759955,0.047600000499999996,-0.21892500399999998,0.1228499997,-1.8914000359999998,-10.28020024,0.1274000026,0.9988048099856441,0.04887690200433457,-0.9877823098692942,0.15584000869251027
351,0.1361491084,-0.2696135938,0.09771636127999998,0.3112525344,0.047600000499999996,-0.21892500399999998,0.1228499997,-1.8914000359999998,-10.28020024,0.1274000026,0.9973114921607055,0.07327883462628892,-0.9912473502803582,0.13201776608536053
352,0.1330809593,-0.2696135938,-0.1051815003,0.22794874010000002,-0.059150002,-0.18252500530000001,0.13772499800000002,-2.107000035,-10.13320038,0.24500000370000002,0.9952220969009173,0.09763696963825268,-0.9941379571543596,0.10811901842394193
353,0.132313922,-0.27038061620000003,-0.1262803078,0.1276294738,-0.13597499970000002,-0.12180000070000001,0.055650001170000005,-1.8914000359999998,-9.36879971,-0.6174000099,0.9925378730050517,0.12193674856501545,-0.9964524553680002,0.08415761516989105
354,0.132313922,-0.27038061620000003,-0.1262803078,0.1276294738,-0.13597499970000002,-0.12180000070000001,0.055650001170000005,-1.8914000359999998,-9.36879971,-0.6174000099,0.989260424791626,0.14616364780988358,-0.9981895036562618,0.06014744209412099
355,0.1288622469,-0.27038061620000003,-0.18057213719999998,0.03925188631,-0.13597499970000002,-0.12180000070000001,0.055650001170000005,-1.8914000359999998,-9.36879971,-0.6174000099,0.9853917111400267,0.1703031873352061,-0.999348095389677,0.036102413229936854
356,0.1277116984,-0.2688465416,-0.21842104199999998,0.1194425672,-0.19897499800000001,-0.048125,-0.088549999,-2.136399949,-8.849399972,-1.1857999940000001,0.9809340443197179,0.19434093931686605,-0.9999275591576766,0.012036462809773038
357,0.1265611351,-0.2692300677,-0.2223748714,0.06799612938999999,-0.19897499800000001,-0.048125,-0.088549999,-2.136399949,-8.849399972,-1.1857999940000001,0.9758900886082343,0.21826253676756474,-0.9999275591576766,-0.012036462809772792
358,0.12272595609999999,-0.2696135938,-0.36244794729999996,0.027170654389999997,-0.2630249953,0.04567499816000001,-0.2719499993,-2.077599975,-9.751000047,-0.5683999836,0.9702628586987844,0.24205368212374445,-0.999348095389677,-0.036102413229935716
359,0.1162061393,-0.2688465416,-0.6099550724,0.05430973321,-0.2630249953,0.04567499816000001,-0.2719499993,-2.077599975,-9.751000047,-0.5683999836,0.9640557178984152,0.2657001557910182,-0.9981895036562619,-0.0601474420941203
360,0.1104533598,-0.2688465416,-0.7527584434000001,0.030236769469999997,-0.2917250013,0.1524250007,-0.315700016,-2.185400048,-12.15200009,0.18619999399999998,0.9572723761178167,0.2891878246429981,-0.9964524553680003,-0.0841576151698908
361,0.1008653939,-0.2676959932,-1.052744508,0.0829610303,-0.2917250013,0.1524250007,-0.315700016,-2.185400048,-12.15200009,0.18619999399999998,0.9499168876539663,0.3125026504684432,-0.9941379571543597,-0.10811901842394124
362,0.09127742797,-0.26846301559999997,-1.287551403,0.01732071675,-0.3205999947,0.18339999199999998,-0.19197500469999998,-2.547999907,-11.92660007,-0.5292000137,0.9419936487669394,0.3356306983616785,-0.9912473502803583,-0.13201776608535987
363,0.08168946207000001,-0.2676959932,-1.4657275680000001,0.044510822740000004,-0.3205999947,0.18339999199999998,-0.19197500469999998,-2.547999907,-11.92660007,-0.5292000137,0.9335073950523334,0.358558145051269,-0.9877823098692943,-0.15584000869250964
364,0.06980038434,-0.26654544469999997,-1.710181832,0.1801555157,-0.2917250013,0.16852500199999998,-0.17272499800000002,-1.8521999569999998,-12.08340039,-0.8428000286,0.9244631986108763,0.38127128716197256,-0.9837448439320028,-0.17957194111887173
365,0.05829482897999999,-0.2653948665,-1.869991779,0.1207928956,-0.2917250013,0.16852500199999998,-0.17272499800000002,-1.8521999569999998,-12.08340039,-0.8428000286,0.9148664650169126,0.4037565494050323,-0.9791372922032013,-0.2031998105731959
366,0.04563871399,-0.26424431800000003,-2.048182249,0.1429568529,-0.2479750013,0.134399997,-0.1630999947,-2.057999936,-12.24019954,-1.558199945,0.9047229300875749,0.4260004926919135,-0.9739623247856003,-0.22670992456932476
367,0.03374963626,-0.26040914649999997,-2.130746365,0.3118467629,-0.2479750013,0.134399997,-0.1630999947,-2.057999936,-12.24019954,-1.558199945,0.8940386564545773,0.44798982216663624,-0.9682229406025633,-0.25008865886106285
368,0.01879241131,-0.2546563447,-2.3547201159999998,0.5117537975,-0.22242500070000001,0.08837500334,-0.1844499993,-2.881199998,-12.14219964,-1.881600016,0.8828200299406745,0.4697113951519023,-0.9619224656602141,-0.2733224653375099
369,0.0030681488569999998,-0.2466024607,-2.586022377,0.7948419452,-0.22242500070000001,0.08837500334,-0.1844499993,-2.881199998,-12.14219964,-1.881600016,0.8710737557429566,0.49115222900426697,-0.9550645511199954,-0.29639787987426885
370,-0.013423151340000002,-0.2381650507,-2.78676343,1.030610561,-0.253399992,-0.009800000042,-0.315700016,-2.724399972,-11.7893995,-2.2049999419999997,0.8588068544252574,0.5122995088736616,-0.9476531711828025,-0.31930153013598
371,-0.02838037722,-0.2293441296,-2.849060535,1.227440834,-0.253399992,-0.009800000042,-0.315700016,-2.724399972,-11.7893995,-2.2049999419999997,0.8460266577220732,0.5331405953626286,-0.9396926207859084,-0.34202014332566866
372,-0.04525519535,-0.219372645,-2.988223553,1.4325735569999998,-0.34089999200000004,-0.1623999953,-0.3734500027,-3.1458000960000003,-11.91679962,-2.283399954,0.8327408041565012,0.5536630320806906,-0.9311875131140247,-0.36454055387640755
373,-0.06289704889,-0.21285282079999998,-3.12100625,1.394563675,-0.4315499973,-0.3074749947,-0.3830749893,-2.606800026,-12.40680032,-1.813000023,0.8189572344748131,0.5738545530893399,-0.9221427769259332,-0.38684971108083893
374,-0.06289704889,-0.21285282079999998,-3.12100625,1.394563675,-0.4315499973,-0.3074749947,-0.3830749893,-2.606800026,-12.40680032,-1.813000023,0.804684186900396,0.5937030902331978,-0.9125636536982432,-0.4089346866541317
375,-0.1070016921,-0.1948274523,-3.3899667260000004,1.4300928119999998,-0.4315499973,-0.3074749947,-0.3830749893,-2.606800026,-12.40680032,-1.813000023,0.7899301922098955,0.6131967803529611,-0.9024556945879252,-0.43078268222599836
376,-0.11965780710000001,-0.191375792,-3.5325279239999996,1.3821283580000001,-0.4924499893,-0.40774998659999995,-0.275274992,-2.587199986,-13.10260012,-0.9211999685,0.7747040686345039,0.6323239723758272,-0.8918247572153826,-0.45238103675742647
377,-0.1399842948,-0.18485596780000002,-3.6699295039999997,1.3555077309999999,-0.4924499893,-0.40774998659999995,-0.275274992,-2.587199986,-13.10260012,-0.9211999685,0.7590149165894429,0.6510732342791563,-0.880677002269928,-0.4737172338778202
378,-0.1595437378,-0.1775691211,-3.7309522630000003,1.394592404,-0.48912501340000003,-0.4611250067,-0.1513749933,-2.479399914,-12.29899995,0.01960000093,0.7428721132347863,0.6694333599232136,-0.8690188899396288,-0.4947789091383092
379,-0.1810207814,-0.1729668975,-3.880547762,1.279491305,-0.48912501340000003,-0.4611250067,-0.1513749933,-2.479399914,-12.29899995,0.01960000093,0.7262853068708804,0.6873933757489019,-0.8568571761675894,-0.5155538571770214
380,-0.20019671320000001,-0.1675976366,-3.8720576760000003,1.222360611,-0.4060000134,-0.4921000147,-0.09275000333999998,-1.940399989,-12.23040025,0.9701999947,0.7092644111717052,0.7049425473364863,-0.8441989087368453,-0.5360300387921554
381,-0.22052319350000002,-0.1641459614,-3.904617786,1.075279355,-0.4060000134,-0.4921000147,-0.09275000333999998,-1.940399989,-12.23040025,0.9701999947,0.6918195992596272,0.7220703858213884,-0.8310514231861303,-0.556195587918771
382,-0.2408496886,-0.1595437378,-3.9405746460000004,1.02726078,-0.30572498800000003,-0.4910499907,0.029925000669999997,-1.93059997,-12.30880041,1.1662000270000001,0.6739612976250835,0.7387666541632165,-0.8174223385588921,-0.5760388185052392
383,-0.2596420944,-0.1541744769,-3.8879194260000003,1.039422989,-0.30572498800000003,-0.4910499907,0.029925000669999997,-1.93059997,-12.30880041,1.1662000270000001,0.6557001798948323,0.7550213732642835,-0.8033195529880097,-0.5955482312853798
384,-0.2799685895,-0.1511063278,-3.9394857880000003,0.9303463101,-0.17552499530000001,-0.4525500107,0.1163750017,-1.6365999580000001,-11.30920043,1.352399966,0.637047160452494,0.770824827933957,-0.7887512391187832,-0.614712520442348
385,-0.2976104319,-0.1465041041,-3.834259987,0.9236682057,-0.17552499530000001,-0.4525500107,0.1163750017,-1.6365999580000001,-11.30920043,1.352399966,0.6180133879151942,0.786167572695277,-0.7737258393728366,-0.6335205801604235
386,-0.314868778,-0.1430524439,-3.733783484,0.8570323586,-0.065625,-0.3970750093,0.1174250007,-1.430799979,-10.44679985,1.342599946,0.5986102384702113,0.8010404374303689,-0.7582520610556869,-0.6519615110608931
387,-0.33097654579999997,-0.1380666941,-3.5985813139999996,0.8862433434,-0.065625,-0.3970750093,0.1174250007,-1.430799979,-10.44679985,1.342599946,0.578849309075607,0.8154345328612791,-0.7423388713108101,-0.6700246265183039
388,-0.345933795,-0.13346447050000002,-3.4453744889999998,0.8425838947,0.027299999,-0.336174984,0.10465000029999999,-1.225,-9.760799921,1.4504000190000002,0.558742410528907,0.8293412558629567,-0.7259954919231307,-0.6876994588534234
389,-0.3608910143,-0.129245773,-3.330323219,0.8388011456000001,0.027299999,-0.336174984,0.10465000029999999,-1.225,-9.760799921,1.4504000190000002,0.5383015604079722,0.8427522946052074,-0.7092313939749446,-0.7049757653993199
390,-0.37239655850000003,-0.1246435493,-3.064608335,0.8589878082,0.09764999866,-0.288224988,0.05232500017,-1.068199974,-9.270799804,1.4504000190000002,0.5175389758882802,0.8556596335205431,-0.6920562923573698,-0.7218435344370487
391,-0.3858197331,-0.12157540019999999,-2.9579751489999997,0.7886041999,0.09764999866,-0.288224988,0.05232500017,-1.068199974,-9.270799804,1.4504000190000002,0.49646706644091343,0.8680555580949607,-0.674480140140514,-0.7382929909974986
392,-0.3980922997,-0.1177402139,-2.8284261230000003,0.7775173187000001,0.1671250033,-0.2423750067,0.01295000017,-1.313200033,-9.025800037,1.430799979,0.47509842641561023,0.8799326594787871,-0.6565131228056139,-0.7543146025260421
393,-0.4088308215,-0.1142885461,-2.657971859,0.7541664839,0.21927499530000003,-0.20930000070000002,0.004375,-1.528800032,-9.104200196,1.6267999380000002,0.45344582751332135,0.8912838389148314,-0.6381656523424861,-0.7698990844067092
394,-0.4088308215,-0.1142885461,-2.657971859,0.7541664839,0.21927499530000003,-0.20930000070000002,0.004375,-1.528800032,-9.104200196,1.6267999380000002,0.4315222111527638,0.9021023119812018,-0.6194483612157229,-0.7850374053426723
395,-0.43644416329999997,-0.1070016921,-2.3823664190000002,0.6463887095,0.21927499530000003,-0.20930000070000002,0.004375,-1.528800032,-9.104200196,1.6267999380000002,0.40934068073553864,0.9123816126462467,-0.6003720962031192,-0.7997207925899342
396,-0.4395123124,-0.10623465480000001,-2.2863738540000003,0.6162270308,0.2460500073,-0.18584999800000002,0.01400000021,-1.607200044,-9.829400206,1.528800032,0.3869144938144325,0.9221155971332019,-0.580947912109895,-0.8139407370411889
397,-0.4491002858,-0.103933543,-2.1855692859999998,0.5653044581000001,0.2460500073,-0.18584999800000002,0.01400000021,-1.607200044,-9.829400206,1.528800032,0.36425705416958665,0.9312984475922286,-0.5611870653623826,-0.8276889981568905
398,-0.4602223337,-0.1008653939,-2.208044767,0.569901526,0.2822749853,-0.17080000399999998,0.05442499816000001,-1.813000023,-9.829400206,1.2054000329999999,0.341381903797268,0.9399246755776511,-0.5411010074848543,-0.8409576087406996
399,-0.46597510579999996,-0.1004818752,-1.924800158,0.4291514158,0.2822749853,-0.17080000399999998,0.05442499816000001,-1.813000023,-9.829400206,1.2054000329999999,0.31830271481603006,0.9479891253283157,-0.5207013784633028,-0.8537388795565166
400,-0.47556307909999995,-0.1008653939,-1.918152094,0.289813906,0.2663500047,-0.179375,0.09939999699999999,-1.430799979,-10.22139983,0.5488000169,0.2950332812951028,0.9554869768491063,-0.5000000000000004,-0.8660254037844384
401,-0.4824663997,-0.10009835660000001,-1.776923656,0.24038156870000002,0.2663500047,-0.179375,0.09939999699999999,-1.430799979,-10.22139983,0.5488000169,0.27158751100989276,0.9624137487917821,-0.479008868662756,-0.8778100613130534
402,-0.49167084689999996,-0.09856428206000001,-1.785760999,0.25188368559999996,0.255674994,-0.152774992,0.139824996,-1.1662000270000001,-10.3977999,0.4410000175,0.24797941712952468,0.9687653011334072,-0.457740148932834,-0.8890860228655869
403,-0.5008752942,-0.09664668888,-1.8052892680000001,0.2867599726,0.255674994,-0.152774992,0.139824996,-1.1662000270000001,-10.3977999,0.4410000175,0.22422310984138963,0.9745378376507791,-0.4362061661555681,-0.8998467539575064
404,-0.5096962452,-0.09511261433,-1.803256035,0.2743244171,0.240625,-0.14629999400000002,0.20597500800000001,-1.048600008,-10.30960045,0.6174000099,0.20033278791770834,0.97972790818937,-0.4144193993977517,-0.9100860186832928
405,-0.5173665881,-0.09166094661,-1.728829861,0.3971838653,0.240625,-0.14629999400000002,0.20597500800000001,-1.048600008,-10.30960045,0.6174000099,0.17632273022914646,0.9843324107254315,-0.3923924742159504,-0.9197978833301829
406,-0.5269545913,-0.0905103907,-1.775216699,0.3494404554,0.20125,-0.177275002,0.2423750067,-1.175999974,-10.02540002,-0.009800000465,0.15220728721055757,0.9883485932200252,-0.3701381553399153,-0.9289767198167911
407,-0.5342414379,-0.08897631615,-1.6828155519999999,0.33444797989999997,0.20125,-0.177275002,0.2423750067,-1.175999974,-10.02540002,-0.009800000465,0.12800087228395496,0.9917740552638724,-0.34766933927534777,-0.9376172089546155
408,-0.5449799299,-0.08859279752,-1.8012725109999999,0.25456053019999997,0.1296749973,-0.235899992,0.292424984,-1.156400007,-10.17239988,-0.5782000035,0.1037179532438343,0.994606749512042,-0.32499904683030795,-0.9457143435305353
409,-0.5530338287,-0.08897631615,-1.7666968109999999,0.1675560474,0.1296749973,-0.235899992,0.292424984,-1.156400007,-10.17239988,-0.5782000035,0.07937304360999885,0.996844982907616,-0.30214041556957305,-0.9532634312085226
410,-0.5599371791,-0.08859279752,-1.6668815609999998,0.1485985816,0.08172500133999999,-0.25620000600000004,0.36714999200000004,-1.136799967,-10.69179962,-0.5978000067,0.0549806939530579,0.9984874176936033,-0.2791066922013475,-0.9602600972488767
411,-0.5683745742,-0.08859279752,-1.6650758980000002,0.1129101887,0.08172500133999999,-0.25620000600000004,0.36714999200000004,-1.136799967,-10.69179962,-0.5978000067,0.0305554831977789,0.9995330722124958,-0.25591122490071827,-0.9667002870434114
412,-0.576428473,-0.08859279752,-1.647474647,0.07739707083,0.03482500017,-0.2509500027,0.42157500270000003,-1.038799988,-10.10380018,-0.5978000067,0.006112009909491614,0.9999813214929898,-0.2325674555743102,-0.9725802684651232
413,-0.5837153196,-0.08667520434,-1.607498765,0.1589053571,0.009099999666000001,-0.292424984,0.43330000399999996,-1.4895999519999998,-10.28999953,-0.2254000004,-0.01833511643124444,0.9998318976235219,-0.2090889120706277,-0.9778966340309805
414,-0.5837153196,-0.08667520434,-1.607498765,0.1589053571,0.009099999666000001,-0.292424984,0.43330000399999996,-1.4895999519999998,-10.28999953,-0.2254000004,-0.04277128416049761,0.9990848899123947,-0.1854892003405797,-0.9826463028765805
415,-0.5990560651,-0.07977186888,-1.3673915859999999,0.3987886012,0.009099999666000001,-0.292424984,0.43330000399999996,-1.4895999519999998,-10.28999953,-0.2254000004,-0.06718188816412665,0.9977407448343998,-0.16178199655276476,-0.9868265225415261
416,-0.6028912663,-0.07823779434,-1.353994846,0.44104138020000005,0.0005249999883000001,-0.3202499866,0.429100008,-0.9603999749,-9.319799757,-0.08819999619999999,-0.09155233860702745,0.9958002657639654,-0.1379810391680442,-0.9904348705644943
417,-0.6074934602000001,-0.07516964525,-1.321426749,0.4912796021,0.0005249999883000001,-0.3202499866,0.429100008,-0.9603999749,-9.319799757,-0.08819999619999999,-0.11586806965324997,0.9932646124949935,-0.11410012097802492,-0.9934692558870657
418,-0.6117121577,-0.07248501480000001,-1.1283268929999999,0.5056505203,-0.021875,-0.3512249947,0.3533250093,-0.9603999749,-9.672599887999999,-0.2254000004,-0.1401145481717692,0.9901353005476681,-0.09015308111206552,-0.9959279200655042
419,-0.6147803068,-0.06788279116,-1.043780565,0.6073818207,-0.021875,-0.3512249947,0.3533250093,-0.9603999749,-9.672599887999999,-0.2254000004,-0.164277282422709,0.9864142002626531,-0.0661537970174122,-0.9978094382897864
420,-0.6182320118,-0.06558167933999999,-0.9506604671,0.5682880282,-0.048474999670000005,-0.3564750147,0.375724988,-1.195600013,-9.741200173,-0.1568000074,-0.18834183071882896,0.9821035356832191,-0.042116176417142916,-0.9991127202092865
421,-0.6224507093,-0.06213001534,-0.9199819565,0.6102259755,-0.048474999670000005,-0.3564750147,0.375724988,-1.195600013,-9.741200173,-0.1568000074,-0.21229381005709352,0.9772058832259672,-0.018054149250561004,-0.9998370105646412
422,-0.6259023547,-0.05944538489,-0.8243275881000001,0.6005636454,-0.07402500033,-0.368200016,0.441875,-1.342599946,-9.780400252,-0.2646000069,-0.23611890471516742,0.9717241701409457,0.006018340399285661,-0.9999818896254263
423,-0.6305046082,-0.05752779171,-0.8472037911,0.5394716263,-0.07402500033,-0.368200016,0.441875,-1.342599946,-9.780400252,-0.2646000069,-0.25980287480769865,0.9656616727620784,0.030087342386276437,-0.9995472734333934
424,-0.6312716007,-0.0563772358,-0.7077224851,0.4571917057,-0.07507499932999999,-0.3533250093,0.4301499987,-0.7447999761,-10.47620006,-0.1372000042,-0.28333156479727367,0.959022014548951,0.0541389085854167,-0.9985334138511239
425,-0.6339562535000001,-0.05676075444,-0.6543999314,0.32328662280000003,-0.07507499932999999,-0.3533250093,0.4301499987,-0.7447999761,-10.47620006,-0.1372000042,-0.30669091195496134,0.9518091639211267,0.07815910097584843,-0.9969408984160731
426,-0.6370244025999999,-0.05829482897999999,-0.6045821905,0.1525120437,-0.1338750017,-0.3639999866,0.5186999892999999,-1.283799973,-10.28999953,0.19599999559999998,-0.32986695476538486,0.9440274318862835,0.1021339997180134,-0.9947706500000897
427,-0.6400925517,-0.05752779171,-0.6493901014,0.1540783495,-0.1338750017,-0.3639999866,0.5186999892999999,-1.283799973,-10.28999953,0.19599999559999998,-0.35284584127129975,0.935681469463593,0.12604971122028916,-0.9920239262746043
428,-0.6423936486,-0.05676075444,-0.5757670999,0.1529253721,-0.1338750017,-0.3267250013,0.6189749813000001,-0.9211999685,-10.71140053,0.5586000003,-0.3756138373526927,0.926776264903879,0.14989237619039272,-0.9887023189818045
429,-0.6443112492999999,-0.05676075444,-0.5620611906,0.1250529736,-0.1338750017,-0.3267250013,0.6189749813000001,-0.9211999685,-10.71140053,0.5586000003,-0.3981573349354488,0.9173171407082181,0.17364817766692997,-0.9848077530122081
430,-0.6466123462,-0.055610198529999995,-0.5142505765,0.1488950104,-0.1380749977,-0.3137750053,0.616875,-0.7742000356000001,-9.623599935,0.45080000090000005,-0.4204628601246847,0.9073097504467643,0.1973033490263996,-0.9803424852891803
431,-0.6477629542,-0.05599371716,-0.43339219689999997,0.09202042967,-0.1380749977,-0.3137750053,0.616875,-0.7742000356000001,-9.623599935,0.45080000090000005,-0.44251708125788347,0.8967600753796992,0.22084418196103162,-0.9753091034610324
432,-0.6504475474,-0.05330908671,-0.44824475049999996,0.2053781599,-0.12634999630000002,-0.2817500067,0.6061999893,-0.6174000099,-10.02540002,0.4704000041,-0.4643068168730203,0.8856744208823261,0.2442570344228313,-0.9697105244014648
433,-0.6519816518,-0.05177501217,-0.4333692789,0.2338004857,-0.111474998,-0.2530500007,0.630700016,-0.8722000152,-8.770999813,0.5879999869,-0.4858190435869153,0.8740594126764467,0.26752833852922014,-0.9635499925192231
434,-0.6519816518,-0.05177501217,-0.4333692789,0.2338004857,-0.111474998,-0.2530500007,0.630700016,-0.8722000152,-8.770999813,0.5879999869,-0.5070409038791074,0.86192199287027,0.29064460842571016,-0.9568310778779426
435,-0.6542827487,-0.04065297171,-0.270442009,0.5703782439,-0.111474998,-0.2530500007,0.630700016,-0.8722000152,-8.770999813,0.5879999869,-0.5279597137765895,0.8492694158092247,0.3135924481010268,-0.9495576741272774
436,-0.6523651481,-0.03988593444,-0.1300694942,0.5489379764,-0.10290000199999999,-0.23800000670000002,0.46217499729999995,-0.3332000181,-8.28100028,-0.02940000026,-0.5485629704348219,0.8361092437401495,0.3363585591501742,-0.9417339962465084
437,-0.6523651481,-0.03490019217,-0.08253462613,0.6640517116,-0.10290000199999999,-0.23800000670000002,0.46217499729999995,-0.3332000181,-8.28100028,-0.02940000026,-0.5688383596104873,0.8224493422914567,0.35892974848094567,-0.9333645781019361
438,-0.6535156965,-0.031832043080000004,-0.11043033,0.6498458982,-0.11567500230000001,-0.2028250027,0.42157500270000003,-0.6075999901,-8.839600098,0.2744000085,-0.5887737630215184,0.8082978757719712,0.38129293595938496,-0.9244542698194824
439,-0.6531322002000001,-0.029147414489999995,-0.0574971512,0.6200433969,-0.11567500230000001,-0.2028250027,0.42157500270000003,-0.6075999901,-8.839600098,0.2744000085,-0.6083572655900072,0.7936633022912483,0.4034351619898081,-0.9150082349740123
440,-0.6538992524,-0.02684630267,-0.08275743574,0.5757598877000001,-0.111474998,-0.1590750027,0.43434999469999996,-0.6566000164,-8.731799733999999,0.5782000035,-0.627577162563659,0.7785543687042972,0.42534359502495966,-0.9050319475970133
441,-0.6542827487,-0.02416167222,-0.08836128563,0.5746397972,-0.111474998,-0.1590750027,0.43434999469999996,-0.6566000164,-8.731799733999999,0.5782000035,-0.646421966511539,0.7629801053837214,0.4470055390019685,-0.8945311890043631
442,-0.6538992524,-0.02339463495,-0.05199145898,0.4713667929,-0.106049999,-0.1174250007,0.42052501200000003,-0.6860000029000001,-8.780800271,0.7545999959,-0.6648804141899316,0.7469498208224064,0.4684084406997896,-0.8835120444460232
443,-0.6538992524,-0.02416167222,-0.05580498278,0.3020752072,-0.106049999,-0.1174250007,0.42052501200000003,-0.6860000029000001,-8.780800271,0.7545999959,-0.6829414732742015,0.7304730960699806,0.48953989701386763,-0.8719808995796019
444,-0.6508311032999999,-0.02569574676,0.1205358654,0.1367971301,-0.103950001,-0.06632499933,0.40985000130000004,-0.6174000099,-9.025800037,1.038799988,-0.7005943489526429,0.7135597790063719,0.5103876621438076,-0.859944436769829
445,-0.6515980959000001,-0.02492870949,0.05518744886,0.1414583921,-0.103950001,-0.06632499933,0.40985000130000004,-0.6174000099,-9.025800037,1.038799988,-0.7178284903783696,0.6962199784558835,0.5309396546898868,-0.8474096312160866
446,-0.6512145996,-0.02454519086,0.06543534248999999,0.1195371971,-0.09117500066999999,-0.01715000033,0.4439750147,-0.24500000370000002,-9.515800153999999,1.332800072,-0.7346335969753897,0.6784640581453086,0.5511839646542928,-0.8343837469102424
447,-0.6489135027,-0.02339463495,0.17804916199999998,0.1591705084,-0.09117500066999999,-0.01715000033,0.4439750147,-0.24500000370000002,-9.515800153999999,1.332800072,-0.7509996245950976,0.6603026305096947,0.57110886034304,-0.8208743324271225
448,-0.6492969989999999,-0.02377815358,0.1255681813,0.09260190278,-0.05704999982999999,0.03622499883,0.3970750093,-0.3430000015,-8.565200126,0.9995999812999999,-0.7669167915195056,0.6417465503494562,0.5907027951645508,-0.8068892165500706
449,-0.6489135027,-0.02301111631,0.1158641428,0.11554288859999999,-0.05704999982999999,0.03622499883,0.3970750093,-0.3430000015,-8.565200126,0.9995999812999999,-0.7823755843076232,0.6228069083426301,0.6099544143209726,-0.7924365037341221
450,-0.6469959021,-0.02339463495,0.1900383085,0.05957463756,-0.05267499983,0.083125,0.35752500530000003,-0.18619999399999998,-9.36879971,1.273999953,-0.79736676348149,0.6034950244161533,0.628852561388348,-0.7775245694094264
451,-0.6462288499000001,-0.02224407904,0.1915664971,0.1146263778,-0.05267499983,0.083125,0.35752500530000003,-0.18619999399999998,-9.36879971,1.273999953,-0.8118813690484682,0.5838224409801195,0.6473862847818271,-0.7621620551276369
452,-0.6446948051,-0.02262759767,0.21515090760000002,0.061320990320000004,-0.03359999925,0.1331750023,0.3533250093,-0.2155999988,-8.898399925,1.273999953,-0.8259107258564895,0.5638009160290596,0.6655448441021738,-0.7463578635540815
453,-0.6427772045,-0.0218605604,0.2668120861,0.08669338375,-0.0175,0.19197500469999998,0.29679998399999996,0.06860000212,-9.065000117,1.175999974,-0.8394464487790565,0.5434424161143763,0.6833177163598887,-0.7301211533086182
454,-0.6427772045,-0.0218605604,0.2668120861,0.08669338375,-0.0175,0.19197500469999998,0.29679998399999996,0.06860000212,-9.065000117,1.175999974,-0.8524804477269028,0.5227591091921205,0.7006946020733419,-0.7134613336581606
455,-0.6393254995000001,-0.01917592995,0.2714310884,0.17022797469999998,-0.0175,0.19197500469999998,0.29679998399999996,0.06860000212,-9.065000117,1.175999974,-0.8650049324833107,0.501763357350398,0.7176654312373828,-0.6963880590639543
456,-0.6400925517,-0.01802537404,0.1860188991,0.20704521239999998,0.003849999979,0.2505999947,0.25830000399999997,0.1469999967,-9.251200056,1.3818000259999998,-0.8770124173602024,0.4804677094207416,0.7342203691589632,-0.6789112235867631
457,-0.6381749511,-0.01380666997,0.23342978949999998,0.37412473560000004,0.003849999979,0.2505999947,0.25830000399999997,0.1469999967,-9.251200056,1.3818000259999998,-0.8884957256722192,0.4588848934778704,0.7503498221564017,-0.661040955153201
458,-0.6370244025999999,-0.01112203952,0.24289862809999999,0.40797171,0.03482500017,0.2997749853,0.2113999987,0.3430000015,-8.349599981,1.107399981,-0.8994479940261122,0.43702780923232193,0.7660444431189779,-0.6427876096865396
459,-0.6358738542,-0.007670372258999999,0.2497173697,0.47849816079999996,0.03482500017,0.2997749853,0.2113999987,0.3430000015,-8.349599981,1.107399981,-0.9098626764228853,0.4149095203204958,0.7812951369236313,-0.6241617651053966
460,-0.6358738542,-0.0030681488569999998,0.18524234,0.5971741079999999,0.019774999919999998,0.3253250027,0.134575001,0.6075999901,-9.329600215,0.43119999770000006,-0.919733548170237,0.3925432464967221,0.7960930657056435,-0.6051742151937656
461,-0.6328057051,-0.0,0.3018285334,0.6036542058,0.019774999919999998,0.3253250027,0.134575001,0.6075999901,-9.329600215,0.43119999770000006,-0.9290547096029599,0.36994235573202466,0.8104296539802285,-0.5858359633459584
462,-0.6305046082,0.0007670372142,0.35063701869999997,0.48645043369999996,0.009099999666000001,0.3563000107,0.21769999269999998,0.4115999945,-9.604000187,0.4410000175,-0.9378205896090793,0.3471203562242913,0.8242965936120762,-0.566158216190075
463,-0.6262859106,-0.0,0.4747910202,0.31721356510000004,0.009099999666000001,0.3563000107,0.21769999269999998,0.4115999945,-9.604000187,0.4410000175,-0.9460259489596191,0.3240908883246368,0.8376858486299649,-0.5461523770936968
464,-0.6201496124,-0.0007670372142,0.659928441,0.19642861190000002,-0.03255000025,0.3839500093,0.2028250027,0.3430000015,-9.339400089,0.38220000789999997,-0.9536658834400057,0.3008677163847818,0.8505896598836502,-0.5258300395555737
465,-0.6128627061999999,-0.002301111585,0.87904948,0.06544592232,-0.03255000025,0.3839500093,0.2028250027,0.3430000015,-9.339400089,0.38220000789999997,-0.9607358267812419,0.277464720530311,0.8630005495403426,-0.5052029804871173
466,-0.6078770161,-0.0015340744279999999,0.9123749137,0.08617087454,-0.0432250005,0.42664998530000003,0.2007250047,0.7153999895,-10.67219987,0.3136000149,-0.9672315533890933,0.25389588836474203,0.8749113254181496,-0.48428315338761957
467,-0.5998231172999999,-0.001150555792,1.096459866,0.08138605952000001,-0.0432250005,0.42664998530000003,0.2007250047,0.7153999895,-10.67219987,0.3136000149,-0.9731491808696592,0.2301753066093567,0.8863150851539869,-0.4630826814171318
468,-0.5933032632,-0.0003835186071,1.154141307,0.08142992853999999,-0.01014999971,0.49384998799999996,0.2369499993,0.7545999959,-10.29979999,0.950600028,-0.9784851723498196,0.20631715268378398,0.897205220203542,-0.44161385037101564
469,-0.5879340171999999,0.001150555792,1.129415035,0.1429880857,-0.01014999971,0.49384998799999996,0.2369499993,0.7545999959,-10.29979999,0.950600028,-0.9832363385911683,0.1823356862323812,0.9075754196709569,-0.41988910156026493
470,-0.5798801184000001,0.003451667493,1.2451362609999999,0.2163701355,-0.00682499975,0.5185249853,0.2434249973,-0.07840000372,-10.77019978,1.372000006,-0.9873998398961704,0.15824524060146952,0.9174196739660341,-0.39792102460168616
471,-0.5722097754,0.008437409066,1.3245885370000001,0.421362102,-0.00682499975,0.5185249853,0.2434249973,-0.07840000372,-10.77019978,1.372000006,-0.9909731878054056,0.13406021427251436,0.9267322782868259,-0.3757223501221467
472,-0.5641558766,0.01380666997,1.4087591169999998,0.5903615952,0.03359999925,0.506799984,0.23169999600000002,-3.263400042,-10.3586004,1.175999974,-0.9939542465848804,0.10979506225638219,0.9355078359256007,-0.35330594238110297
473,-0.5564854740999999,0.01840889268,1.4509544369999998,0.6855289936,0.05722499967,0.4310249853,0.07472499967,-4.596200114,-12.22059979,-0.4115999945,-0.9963412345025239,0.08546428745380572,0.9437412613962664,-0.3306847918156869
474,-0.5564854740999999,0.01840889268,1.4509544369999998,0.6855289936,0.05722499967,0.4310249853,0.07472499967,-4.596200114,-12.22059979,-0.4115999945,-0.9981327248931005,0.061082431987226474,0.9514277833814366,-0.3078720075126774
475,-0.5296391845,0.0302979704,1.802197337,0.8042116761,0.05722499967,0.4310249853,0.07472499967,-4.596200114,-12.22059979,-0.4115999945,-0.9993276470109054,0.03666406850919894,0.9585629474974411,-0.2848808096117008
476,-0.5273380876,0.0302979704,1.7301087380000002,0.7119365335,0.10622500300000001,0.3071249866,0.07052500367,-3.5378000139999997,-13.08300037,-2.861599958,-0.9999252866697326,0.012223791492543346,0.9651426188756621,-0.2617245216440915
477,-0.5212017894,0.032599080350000004,1.5063308480000002,0.6398044229,0.10622500300000001,0.3071249866,0.07052500367,-3.5378000139999997,-13.08300037,-2.861599958,-0.9999252866697326,-0.0122237914925431,0.9711629845587162,-0.23841656281182894
478,-0.517750144,0.03528371081,1.365523696,0.6069914103,0.21087500329999997,0.2399250007,0.021350000499999997,-2.9008000369999998,-12.59299967,-2.636199939,-0.9993276470109054,-0.03666406850919869,0.9766205557100867,-0.2149704402110244
479,-0.5116138458,0.03643426672,1.330325723,0.49767935280000003,0.21087500329999997,0.2399250007,0.021350000499999997,-2.9008000369999998,-12.59299967,-2.636199939,-0.9981327248931006,-0.061082431987226224,0.981512169635921,-0.19139974100449322
480,-0.5081621408,0.04065297171,1.158377528,0.5867151618,0.2897999907,0.1844499993,-0.03622499883,-2.59699986,-10.23120029,-1.607200044,-0.996341234502524,-0.08546428745380502,0.9858349916178331,-0.1677181245479064
481,-0.5058610439,0.04295408353,0.9702651501,0.5482896566,0.2897999907,0.1844499993,-0.03622499883,-2.59699986,-10.23120029,-1.607200044,-0.9939542465848803,-0.10979506225638239,0.9895865165556372,-0.1439393144741197
482,-0.5054775476,0.04525519535,0.7528867722,0.5304461122,0.3729249907,0.2026499987,-0.075600003,-2.263800061,-9.760799921,-0.6860000029000001,-0.9909731878054056,-0.13406021427251416,0.9927645704190687,-0.12007709074024876
483,-0.5070115924,0.04333760217,0.4781264365,0.3032492995,0.3729249907,0.2026499987,-0.075600003,-2.263800061,-9.760799921,-0.6860000029000001,-0.9873998398961705,-0.1582452406014693,0.9953673115076466,-0.09614528164210462
484,-0.5058610439,0.0437211208,0.41320610049999995,0.24181877079999997,0.2939999866,0.2794750047,0.1153250027,-3.2731999160000003,-10.90740035,0.1077999994,-0.9832363385911684,-0.182335686232381,0.9973932315179498,-0.07215775580061694
485,-0.5043269396,0.04487167671,0.3902421296,0.2450541705,0.2939999866,0.2794750047,0.1153250027,-3.2731999160000003,-10.90740035,0.1077999994,-0.9784851723498197,-0.20631715268378376,0.9988411564176874,-0.04812841412488838
486,-0.5024093986,0.04410463944,0.38579088450000004,0.1478273869,0.13825000169999999,0.354199996,0.29679998399999996,-3.478999895,-9.36879971,0.6860000029000001,-0.9731491808696592,-0.2301753066093565,0.9997102471260579,-0.024071181756537007
487,-0.49780714509999996,0.04525519535,0.5263456106000001,0.177028358,0.13825000169999999,0.354199996,0.29679998399999996,-3.478999895,-9.36879971,0.6860000029000001,-0.9672315533890934,-0.2538958883647418,1.0,-2.4492935982947064e-16
488,-0.4955060482,0.04448815808,0.5204935074,0.08900722860999999,-0.007874999791,0.414924984,0.175,-3.7239999530000003,-10.90740035,1.93059997,-0.9607358267812419,-0.27746472053031085,1.0,0.0
489,-0.4955060482,0.04448815808,0.39010390640000003,0.07093553245,-0.007874999791,0.414924984,0.175,-3.7239999530000003,-10.90740035,1.93059997,-0.9536658834400056,-0.30086771638478205,0.9997332081116372,0.023097891653001097
490,-0.4935884476,0.04410463944,0.3894907236,0.01908196509,-0.065625,0.490700016,0.2113999987,-4.321800143,-12.97520001,2.636199939,-0.946025948959619,-0.324090888324637,0.9989329748023724,0.04618345864573959
491,-0.4932049215,0.0437211208,0.2983528674,-0.009565030225,-0.065625,0.490700016,0.2113999987,-4.321800143,-12.97520001,2.636199939,-0.9378205896090793,-0.3471203562242911,0.9975997270637169,0.06924438289419164
492,-0.492054373,0.04333760217,0.2770832777,-0.024526944380000002,-0.08365000367,0.51625,0.2744000053,-4.7921999280000005,-12.72039979,2.606800026,-0.92905470960296,-0.3699423557320245,0.9957341762950345,0.09226835946330199
493,-0.49167084689999996,0.0425705649,0.2462827712,-0.06439293176,-0.07192500234,0.5568499947,0.2999499893,-5.29200021,-12.63220034,1.558199945,-0.9197335481702371,-0.39254324649672195,0.99333731792395,0.11524310313269766
494,-0.48783567549999995,0.0425705649,0.3215900064,-0.06439293176,-0.07192500234,0.5568499947,0.2999499893,-5.29200021,-12.63220034,1.558199945,-0.9098626764228854,-0.4149095203204956,0.9904104308752052,0.1381563549518822
495,-0.4870686233,0.03451667354,0.3300360143,-0.3870235682,-0.07192500234,0.5568499947,0.2999499893,-5.29200021,-12.63220034,1.558199945,-0.8994479940261123,-0.43702780923232176,0.9869550768882457,0.16099588878141288
496,-0.4843840003,0.031832043080000004,0.4508759975,-0.49864411350000004,-0.07630000234,0.6016500187,0.37887499329999996,-5.086199939,-11.80900042,-0.2155999988,-0.8884957256722193,-0.4588848934778702,0.9829730996839018,0.18374951781657034
497,-0.4809323251,0.030681489039999996,0.551887989,-0.42469629649999996,-0.07630000234,0.6016500187,0.37887499329999996,-5.086199939,-11.80900042,-0.2155999988,-0.8770124173602023,-0.48046770942074174,0.978466623980609,0.2064051010900397
498,-0.4728784561,0.029914451760000006,0.7885828614,-0.348240912,-0.07735000134,0.6315750027,0.38535000799999997,-4.204199903999999,-8.653400159,-1.058400027,-0.8650049324833106,-0.5017633573503982,0.9734380543606929,0.22895054995013409
499,-0.4675091803,0.02761333995,0.9059131742000001,-0.3774983287,-0.07735000134,0.6315750027,0.38535000799999997,-4.204199903999999,-8.653400159,-1.058400027,-0.8524804477269029,-0.5227591091921203,0.9678900739873226,0.2513738345111027
500,-0.4602223337,0.02416167222,1.052594781,-0.45728510619999996,-0.0378000015,0.6411999893,0.02467499942,-2.9008000369999998,-8.03599993,-2.0089999819999997,-0.8394464487790566,-0.543442416114376,0.961825643172819,0.27366299007208283
501,-0.45446956159999996,0.0176418554,1.062195182,-0.6848628521,-0.0378000015,0.6411999893,0.02467499942,-2.9008000369999998,-8.03599993,-2.0089999819999997,-0.8259107258564896,-0.5638009160290594,0.95524799779908,0.2958061235012704
502,-0.44449806210000004,0.01035500225,1.236101151,-0.8913124204,-0.053899998660000004,0.5953500079999999,-0.05862499833,-3.204599923,-9.339400089,-2.224599981,-0.8118813690484683,-0.5838224409801193,0.9481606475909659,0.3177914195819016
503,-0.438361764,-0.001150555792,1.310809135,-1.270433784,-0.053899998660000004,0.5953500079999999,-0.05862499833,-3.204599923,-9.339400089,-2.224599981,-0.7973667634814902,-0.6034950244161532,0.9405673742435676,0.33960714731666136
504,-0.43107491729999997,-0.01188907679,1.2914777990000001,-1.51310432,-0.08697499633,0.5409249973,0.07367500067,-3.204599923,-9.751000047,-1.979600069,-0.782375584307623,-0.6228069083426302,0.9324722294043558,0.3612416661871529
505,-0.42647269369999996,-0.02492870949,1.257048011,-1.811722755,-0.08697499633,0.5409249973,0.07367500067,-3.204599923,-9.751000047,-1.979600069,-0.7669167915195059,-0.641746550349456,0.9238795325112867,0.3826834323650898
506,-0.421486944,-0.03873537853,1.187754393,-2.06914854,-0.07087500333999999,0.4864999866,0.19004999399999997,-3.15559997,-9.378600168,-1.597400025,-0.7509996245950975,-0.6603026305096948,0.914793868488021,0.4039210048718949
507,-0.41573417189999995,-0.05139149353,1.1706980470000001,-2.199057341,-0.07087500333999999,0.4864999866,0.19004999399999997,-3.15559997,-9.378600168,-1.597400025,-0.7346335969753898,-0.6784640581453085,0.9052200852974821,0.4249430516834219
508,-0.4092143476,-0.06711575388999999,1.1360955240000001,-2.3264813419999997,-0.039899999500000005,0.42664998530000003,0.21665000199999998,-2.626400065,-9.358999836,-1.401400065,-0.7178284903783698,-0.6962199784558833,0.8951632913550623,0.44573835577653825
509,-0.4053791761,-0.07670371979,1.096628785,-2.337271929,-0.039899999500000005,0.42664998530000003,0.21665000199999998,-2.626400065,-9.358999836,-1.401400065,-0.7005943489526432,-0.7135597790063717,0.8846288528028554,0.46629582111434803
510,-0.40039342640000003,-0.09166094661,1.013701677,-2.372475863,-0.0378000015,0.3519250107,0.2369499993,-2.3715999869999997,-9.476600075,-1.6365999580000001,-0.6829414732742017,-0.7304730960699803,0.8736223906463696,0.4866044785668563
511,-0.39732527729999995,-0.10316650570000001,0.9485939145000001,-2.353732586,-0.0378000015,0.3519250107,0.2369499993,-2.3715999869999997,-9.476600075,-1.6365999580000001,-0.6648804141899318,-0.7469498208224061,0.8621497777552507,0.5066534917639194
512,-0.3896549046,-0.11352150890000001,1.047608137,-2.2820012569999997,-0.05704999982999999,0.2943499947,0.2241750073,-2.067799956,-8.908199799,-1.950200009,-0.6464219665115397,-0.762980105383721,0.8502171357296142,0.5264321628773557
513,-0.3865867555,-0.12310947480000001,0.9880238771,-2.182130575,-0.09327499866,0.222949996,0.19004999399999997,-1.861999977,-8.712199986,-2.165800008,-0.6275771625636586,-0.7785543687042975,0.8378308316336583,0.5459299383291344
514,-0.3865867555,-0.12310947480000001,0.9880238771,-2.182130575,-0.09327499866,0.222949996,0.19004999399999997,-1.861999977,-8.712199986,-2.165800008,-0.6083572655900075,-0.793663302291248,0.8249974745983024,0.5651364144225919
515,-0.3727800846,-0.1476546675,1.024708986,-1.9962577819999998,-0.09327499866,0.222949996,0.19004999399999997,-1.861999977,-8.712199986,-2.165800008,-0.5887737630215186,-0.808297875771971,0.8117239122946612,0.5840413428936766
516,-0.3697119355,-0.1514898539,1.02424407,-1.9872317309999998,-0.1295000017,0.17587500329999997,0.1601249933,-2.0089999819999997,-8.320199776,-1.8914000359999998,-0.5688383596104873,-0.8224493422914568,0.7980172272802395,0.6026346363792563
517,-0.3620415628,-0.1595437378,1.1472971440000002,-1.8870228530000002,-0.1295000017,0.17587500329999997,0.1601249933,-2.0089999819999997,-8.320199776,-1.8914000359999998,-0.5485629704348226,-0.836109243740149,0.7838847332197937,0.6209063737995713
518,-0.3570558131,-0.1672141105,1.109342217,-1.7844440940000001,-0.1520749927,0.1321250033,0.11427500369999999,-2.067799956,-8.045799804,-1.617000064,-0.5279597137765898,-0.8492694158092244,0.7693339709828789,0.6388468056519613
519,-0.3497689664,-0.1748844832,1.18983376,-1.7099980119999998,-0.1520749927,0.1321250033,0.11427500369999999,-2.067799956,-8.045799804,-1.617000064,-0.5070409038791076,-0.8619219928702698,0.7543727046201639,0.6564463592130425
520,-0.3443997204,-0.1821713448,1.153715134,-1.645057559,-0.165899992,0.08942500233999999,0.08872500300000001,-2.116800055,-8.14379971,-1.587600005,-0.4858190435869156,-0.8740594126764465,0.7390089172206591,0.6736956436465572
521,-0.3374963701,-0.1886911541,1.197497606,-1.5594084259999998,-0.165899992,0.08942500233999999,0.08872500300000001,-2.116800055,-8.14379971,-1.587600005,-0.46430681687302006,-0.8856744208823262,0.72325080665207,0.6905854550141713
522,-0.33174359800000003,-0.1948274523,1.175280452,-1.4782625440000001,-0.17114999530000002,0.057574999329999994,0.07472499967,-2.351999947,-8.290800154,-1.430799979,-0.4425170812578833,-0.8967600753796993,0.7071067811865476,0.7071067811865475
523,-0.3256072998,-0.1986626387,1.185293913,-1.28870821,-0.17114999530000002,0.057574999329999994,0.07472499967,-2.351999947,-8.290800154,-1.430799979,-0.4204628601246853,-0.9073097504467641,0.6905854550141716,0.7232508066520698
524,-0.3194710016,-0.20518244800000002,1.207465172,-1.294428229,-0.1690499973,0.04795000017,0.05670000017000001,-2.3715999869999997,-8.42800014,-1.23480002,-0.3981573349354492,-0.9173171407082179,0.6736956436465573,0.7390089172206591
525,-0.31448525190000004,-0.2071000487,1.1534923320000001,-1.047453523,-0.1690499973,0.04795000017,0.05670000017000001,-2.3715999869999997,-8.42800014,-1.23480002,-0.3756138373526927,-0.926776264903879,0.6564463592130427,0.7543727046201638
526,-0.3094995022,-0.21246930960000002,1.114723444,-0.9915924668,-0.17552499530000001,0.05215000033,0.030974999669999996,-2.42059994,-8.565200126,-1.1857999940000001,-0.35284584127129953,-0.9356814694635931,0.6388468056519613,0.7693339709828789
527,-0.30489727850000004,-0.21438689530000002,1.0636180640000001,-0.8764941096,-0.17552499530000001,0.05215000033,0.030974999669999996,-2.42059994,-8.565200126,-1.1857999940000001,-0.3298669547653853,-0.9440274318862834,0.6209063737995715,0.7838847332197936
528,-0.30029505489999997,-0.21822208170000001,1.025201082,-0.7941045761,-0.1744750047,0.05424999832999999,0.004375,-2.361799967,-8.565200126,-1.332800072,-0.3066909119549618,-0.9518091639211265,0.6026346363792564,0.7980172272802395
529,-0.2964598835,-0.22052319350000002,0.9520435929000001,-0.7100602984000001,-0.1744750047,0.05424999832999999,0.004375,-2.361799967,-8.565200126,-1.332800072,-0.2833315647972739,-0.9590220145489509,0.5840413428936767,0.8117239122946611
530,-0.29109063739999996,-0.2209067196,0.9790523052,-0.5470577478,-0.1455999947,0.059675001500000005,-0.001049999977,-2.087399995,-8.124199962999999,-1.3818000259999998,-0.25980287480769865,-0.9656616727620784,0.5651364144225919,0.8249974745983023
531,-0.2872554362,-0.22397486870000002,0.9247783422,-0.564617157,-0.1455999947,0.059675001500000005,-0.001049999977,-2.087399995,-8.124199962999999,-1.3818000259999998,-0.23611890471516744,-0.9717241701409457,0.5459299383291345,0.8378308316336582
532,-0.2803521156,-0.2270430177,1.038946271,-0.5789657831,-0.1200500023,0.07244999766,-0.057574999329999994,-1.93059997,-8.271199822,-1.479799932,-0.21229381005709333,-0.9772058832259672,0.5264321628773558,0.8502171357296141
533,-0.2776674628,-0.2285770923,0.9241053462000001,-0.513437748,-0.08470000267000001,0.08942500233999999,-0.055475001339999996,-2.097200015,-8.133999836000001,-1.107399981,-0.18834183071882943,-0.982103535683219,0.5066534917639194,0.8621497777552506
534,-0.2776674628,-0.2285770923,0.9241053462000001,-0.513437748,-0.08470000267000001,0.08942500233999999,-0.055475001339999996,-2.097200015,-8.133999836000001,-1.107399981,-0.16427728242270923,-0.986414200262653,0.4866044785668563,0.8736223906463696
535,-0.2650113702,-0.2324122787,0.9877729416,-0.41035887600000004,-0.08470000267000001,0.08942500233999999,-0.055475001339999996,-2.097200015,-8.133999836000001,-1.107399981,-0.14011454817176922,-0.9901353005476681,0.46629582111434803,0.8846288528028554
536,-0.26079264280000003,-0.2335628271,1.0091590879999999,-0.3718566597,-0.0378000015,0.10447499630000001,-0.133349998,-1.75420005,-7.78120029,-0.9995999812999999,-0.11586806965324999,-0.9932646124949935,0.4457383557765383,0.8951632913550623
537,-0.2573409975,-0.2370145023,0.9773124456000001,-0.4713292718,-0.0378000015,0.10447499630000001,-0.133349998,-1.75420005,-7.78120029,-0.9995999812999999,-0.09155233860702724,-0.9958002657639654,0.424943051683422,0.905220085297482
538,-0.2535057962,-0.2385485768,0.9203014373999999,-0.4258878231,-0.01224999979,0.09799999832999999,-0.16642500400000002,-1.773799944,-8.457399762,-1.048600008,-0.06718188816412622,-0.9977407448343998,0.40392100487189514,0.9147938684880209
539,-0.24621894960000001,-0.2408496886,1.053857923,-0.4327657223,-0.01224999979,0.09799999832999999,-0.16642500400000002,-1.773799944,-8.457399762,-1.048600008,-0.04277128416049807,-0.9990848899123947,0.38268343236508984,0.9238795325112867
540,-0.2416167259,-0.2412331998,1.03085959,-0.3353764713,0.037975001339999995,0.10447499630000001,-0.17167500730000002,-1.861999977,-7.869399737999999,-1.038799988,-0.018335116431244688,-0.9998318976235219,0.36124166618715303,0.9324722294043558
541,-0.2366309762,-0.2427672744,1.011322379,-0.33404049280000003,0.037975001339999995,0.10447499630000001,-0.17167500730000002,-1.861999977,-7.869399737999999,-1.038799988,0.00611200990949159,-0.9999813214929898,0.33960714731666136,0.9405673742435676
542,-0.230494678,-0.2443013489,1.059647679,-0.3415987492,0.071049999,0.08627499699999999,-0.27737500670000004,-1.705199951,-7.820399785,-1.23480002,0.03055548319777821,-0.9995330722124958,0.31779141958190166,0.9481606475909659
543,-0.2247419059,-0.24621894960000001,1.087475061,-0.3590072989,0.071049999,0.08627499699999999,-0.27737500670000004,-1.705199951,-7.820399785,-1.23480002,0.054980693953057436,-0.9984874176936033,0.2958061235012705,0.95524799779908
544,-0.219372645,-0.2489035726,1.0962983370000001,-0.4089274704,0.08277500033,0.061774999500000004,-0.33285000800000003,-2.097200015,-8.349599981,-1.499399972,0.07937304360999839,-0.996844982907616,0.273662990072083,0.961825643172819
545,-0.2132363468,-0.2508211732,1.1301004890000002,-0.4000346959,0.08277500033,0.061774999500000004,-0.33285000800000003,-2.097200015,-8.349599981,-1.499399972,0.10371795324383407,-0.994606749512042,0.2513738345111027,0.9678900739873226
546,-0.2071000487,-0.2527387738,1.150793552,-0.3907223046,0.10307499769999999,0.04690000117,-0.35945001600000004,-2.195200068,-7.78120029,-1.313200033,0.12800087228395515,-0.9917740552638724,0.22895054995013414,0.9734380543606929
547,-0.2005802244,-0.2550398707,1.189677715,-0.404076308,0.10307499769999999,0.04690000117,-0.35945001600000004,-2.195200068,-7.78120029,-1.313200033,0.15220728721055776,-0.9883485932200252,0.20640510109003962,0.978466623980609
548,-0.1959780157,-0.2584915459,1.115986228,-0.4717495441,0.10832500099999999,0.015925000459999998,-0.5130999947,-1.646399978,-7.526400065,-1.146599987,0.17632273022914577,-0.9843324107254317,0.18374951781657053,0.9829730996839018
549,-0.1886911541,-0.2630937696,1.203495264,-0.5908532143,0.10832500099999999,0.015925000459999998,-0.5130999947,-1.646399978,-7.526400065,-1.146599987,0.2003327879177081,-0.97972790818937,0.16099588878141294,0.9869550768882457
550,-0.1825548559,-0.26692894100000003,1.20759213,-0.6093364954,0.09450000167000001,-0.03850000083,-0.6049749946999999,-1.607200044,-7.791000164,-1.362199986,0.2242231098413896,-0.9745378376507791,0.1381563549518823,0.9904104308752052
551,-0.17641855780000001,-0.2722982168,1.209787488,-0.7269567251000001,0.09450000167000001,-0.03850000083,-0.6049749946999999,-1.607200044,-7.791000164,-1.362199986,0.24797941712952382,-0.9687653011334074,0.1152431031326976,0.99333731792395
552,-0.1698987484,-0.2761333883,1.229389429,-0.7381478548,0.08802500367,-0.08557499766000001,-0.701050024,-1.460200039,-7.49699986,-1.5190000119999998,0.271587511009893,-0.962413748791782,0.092268359463302,0.9957341762950345
553,-0.1626118869,-0.2830367386,1.2958059309999999,-0.9021464586,0.09450000167000001,-0.1494499993,-0.7927499866,-1.2054000329999999,-7.673399925,-1.675800037,0.2950332812951032,-0.9554869768491062,0.06924438289419173,0.9975997270637169
554,-0.1626118869,-0.2830367386,1.2958059309999999,-0.9021464586,0.09450000167000001,-0.1494499993,-0.7927499866,-1.2054000329999999,-7.673399925,-1.675800037,0.3183027148160299,-0.9479891253283158,0.04618345864573974,0.9989329748023724
555,-0.1465041041,-0.2976104319,1.336505771,-1.0806801320000001,0.09450000167000001,-0.1494499993,-0.7927499866,-1.2054000329999999,-7.673399925,-1.675800037,0.34138190379726785,-0.9399246755776512,0.023097891653001315,0.9997332081116372
556,-0.1419018805,-0.30029505489999997,1.3744795319999998,-1.0535525079999999,0.11584999800000001,-0.210350008,-0.8674749947,-1.12700002,-7.487199986,-2.116800055,0.36425705416958665,-0.9312984475922286,6.123233995736766e-17,1.0
557,-0.1369161457,-0.30643135309999997,1.264525175,-1.0967936520000001,0.11584999800000001,-0.210350008,-0.8674749947,-1.12700002,-7.487199986,-2.116800055,0.3869144938144327,-0.9221155971332018,-0.023097891653000968,0.9997332081116372
558,-0.1277116984,-0.3129511774,1.406397939,-1.153666735,0.11584999800000001,-0.29574999329999996,-0.9688000106999999,-0.6174000099,-8.526000047,-2.283399954,0.40934068073553825,-0.912381612646247,-0.046183458645739396,0.9989329748023724
559,-0.1192742884,-0.3187039495,1.476351261,-1.1650358440000002,0.11584999800000001,-0.29574999329999996,-0.9688000106999999,-0.6174000099,-8.526000047,-2.283399954,0.4315222111527636,-0.9021023119812019,-0.06924438289419162,0.9975997270637169
560,-0.1108368784,-0.3240732253,1.5348439219999999,-1.143319845,0.08697499633,-0.3619000053,-1.0083499809999998,-0.5488000169,-9.643200266000001,-2.567599946,0.4534458275133212,-0.8912838389148315,-0.09226835946330189,0.9957341762950346
561,-0.10278298710000001,-0.329058975,1.560808301,-1.107226968,0.08697499633,-0.3619000053,-1.0083499809999998,-0.5488000169,-9.643200266000001,-2.567599946,0.47509842641561023,-0.8799326594787871,-0.11524310313269749,0.99333731792395
562,-0.09319502115,-0.3348117471,1.6701122519999998,-1.127154708,0.05495000183999999,-0.41300000670000003,-0.9932999706,-0.38220000789999997,-10.09399972,-2.273599935,0.49646706644091354,-0.8680555580949606,-0.13815635495188197,0.9904104308752052
563,-0.08514112979,-0.3394139707,1.6654583219999999,-1.082672238,0.05495000183999999,-0.41300000670000003,-0.9932999706,-0.38220000789999997,-10.09399972,-2.273599935,0.5175389758882806,-0.8556596335205429,-0.16099588878141305,0.9869550768882457
564,-0.07632020116,-0.34324914219999997,1.68364954,-1.005789042,0.02625,-0.4472999907,-0.9911999893000001,-0.3136000149,-10.61339946,-1.714999971,0.5383015604079717,-0.8427522946052077,-0.18374951781657042,0.9829730996839018
565,-0.06749927253,-0.34823489189999995,1.692610741,-1.009466052,0.02625,-0.4472999907,-0.9911999893000001,-0.3136000149,-10.61339946,-1.714999971,0.5587424105289068,-0.8293412558629569,-0.2064051010900395,0.978466623980609
566,-0.0563772358,-0.35283711549999996,1.8317646980000002,-0.9848195909999999,0.011199999750000002,-0.46427501200000004,-0.9612750053,-0.1568000074,-11.15240011,-1.25440006,0.578849309075607,-0.8154345328612791,-0.2289505499501338,0.9734380543606929
567,-0.04832334444,-0.3578228652,1.7846629619999999,-0.9890949726,0.011199999750000002,-0.46427501200000004,-0.9612750053,-0.1568000074,-11.15240011,-1.25440006,0.5986102384702107,-0.8010404374303693,-0.2513738345111028,0.9678900739873225
568,-0.03796834126,-0.3635756373,1.855266452,-0.9768944979,0.01767499983,-0.45149998659999996,-0.8770999813,-0.1274000026,-11.52479999,-0.8428000286,0.6180133879151944,-0.7861675726952769,-0.2736629900720829,0.961825643172819
569,-0.02799685858,-0.3697119355,1.900544405,-1.046355724,0.01767499983,-0.45149998659999996,-0.8770999813,-0.1274000026,-11.52479999,-0.8428000286,0.6370471604524943,-0.7708248279339567,-0.2958061235012704,0.95524799779908
570,-0.02032648586,-0.3743141592,1.8175214530000001,-1.015808344,0.029399999080000003,-0.416325016,-0.7692999840000001,-0.2841999918,-11.81879971,-0.46059998420000003,0.6557001798948321,-0.7550213732642836,-0.31779141958190155,0.9481606475909659
571,-0.01112203952,-0.38006693119999996,1.829964638,-1.043693066,0.029399999080000003,-0.416325016,-0.7692999840000001,-0.2841999918,-11.81879971,-0.46059998420000003,0.6739612976250834,-0.7387666541632167,-0.33960714731666125,0.9405673742435677
572,-0.002301111585,-0.3858197331,1.817531705,-1.0759255890000001,0.0486499995,-0.3512249947,-0.663599968,-0.235200002,-11.6227999,-0.0,0.6918195992596272,-0.7220703858213884,-0.3612416661871529,0.9324722294043558
573,0.004602223169,-0.3896549046,1.705912471,-1.001037955,0.068950001,-0.27125,-0.5719000053,-0.3233999982,-11.29939997,0.2646000069,0.7092644111717048,-0.7049425473364866,-0.3826834323650897,0.9238795325112867
574,0.004602223169,-0.3896549046,1.705912471,-1.001037955,0.068950001,-0.27125,-0.5719000053,-0.3233999982,-11.29939997,0.2646000069,0.7262853068708801,-0.6873933757489021,-0.40392100487189486,0.914793868488021
575,0.02416167222,-0.3996263742,1.592617035,-0.9127090573000001,0.068950001,-0.27125,-0.5719000053,-0.3233999982,-11.29939997,0.2646000069,0.7428721132347862,-0.6694333599232137,-0.42494305168342167,0.9052200852974821
576,0.02761333995,-0.401927501,1.6099127530000001,-0.88971138,0.08592499732999999,-0.1762249947,-0.5057499933,-0.2057999972,-10.91719964,0.37239998799999996,0.7590149165894422,-0.651073234279157,-0.44573835577653825,0.8951632913550623
577,0.033366117630000004,-0.4042285979,1.49447751,-0.7779504061,0.08592499732999999,-0.1762249947,-0.5057499933,-0.2057999972,-10.91719964,0.37239998799999996,0.7747040686345041,-0.632323972375827,-0.46629582111434814,0.8846288528028553
578,0.04142000899,-0.4061461985,1.528661966,-0.6681057811,0.10622500300000001,-0.08557499766000001,-0.44922500130000004,-0.2155999988,-10.427200099999999,0.17639999239999998,0.7899301922098956,-0.6131967803529609,-0.48660447856685607,0.8736223906463696
579,0.04755630717,-0.4092143476,1.46303618,-0.6538025141,0.10622500300000001,-0.08557499766000001,-0.44922500130000004,-0.2155999988,-10.427200099999999,0.17639999239999998,0.8046841869003958,-0.593703090233198,-0.5066534917639193,0.8621497777552507
580,0.05369260535,-0.4118989706,1.41487515,-0.6261547208,0.1254750013,0.0008750000130000001,-0.4086250067,-0.03920000186,-9.93720057,-0.303799995,0.818957234474813,-0.5738545530893401,-0.5264321628773558,0.8502171357296141
581,0.05982890352999999,-0.4111319482,1.380088091,-0.4173956513,0.1254750013,0.0008750000130000001,-0.4086250067,-0.03920000186,-9.93720057,-0.303799995,0.8327408041565012,-0.5536630320806906,-0.5459299383291343,0.8378308316336585
582,0.06749927253,-0.4130495489,1.35009706,-0.3957130015,0.1499749947,0.081025002,-0.362774992,-0.06860000212,-9.564800107,-0.5096000104999999,0.8460266577220728,-0.5331405953626291,-0.5651364144225919,0.8249974745983024
583,0.07248501480000001,-0.4118989706,1.32700932,-0.22665905949999998,0.1499749947,0.081025002,-0.362774992,-0.06860000212,-9.564800107,-0.5096000104999999,0.8588068544252571,-0.512299508873662,-0.5840413428936764,0.8117239122946613
584,0.08092242478999999,-0.4111319482,1.3547035459999999,-0.1244683191,0.19267500399999998,0.1438500047,-0.354199996,0.235200002,-9.133599817999999,-0.4018000111,0.8710737557429569,-0.49115222900426647,-0.6026346363792563,0.7980172272802396
585,0.08820927888,-0.4107484221,1.3891654009999999,-0.06434981525,0.19267500399999998,0.1438500047,-0.354199996,0.235200002,-9.133599817999999,-0.4018000111,0.8828200299406744,-0.46971139515190247,-0.6209063737995713,0.7838847332197937
586,0.09242798388000001,-0.4111319482,1.322454095,-0.06892569362999999,0.2023000073,0.16625,-0.3297000027,0.37239998799999996,-9.604000187,-0.9701999947,0.8940386564545773,-0.44798982216663624,-0.6388468056519611,0.7693339709828791
587,0.10009835660000001,-0.40844732520000004,1.3793752190000002,0.08760514109999999,0.2023000073,0.16625,-0.3297000027,0.37239998799999996,-9.604000187,-0.9701999947,0.904722930087575,-0.42600049269191337,-0.6564463592130424,0.754372704620164
588,0.10776872929999999,-0.40652972460000003,1.354186535,0.1629126072,0.229950006,0.17272499800000002,-0.22400000329999997,0.3332000181,-9.584399855,-1.25440006,0.9148664650169124,-0.4037565494050328,-0.6736956436465569,0.7390089172206594
589,0.1139050275,-0.40346157549999995,1.325609565,0.2865592241,0.229950006,0.17272499800000002,-0.22400000329999997,0.3332000181,-9.584399855,-1.25440006,0.9244631986108762,-0.38127128716197295,-0.6905854550141716,0.7232508066520698
590,0.11850725109999999,-0.4023110271,1.295318961,0.2694397271,0.2523500013,0.153475008,-0.17167500730000002,0.7350000292000001,-9.956800317999999,-1.783599964,0.9335073950523333,-0.3585581450512692,-0.7071067811865475,0.7071067811865476
591,0.1238765121,-0.40039342640000003,1.230683446,0.2997003496,0.2523500013,0.153475008,-0.17167500730000002,0.7350000292000001,-9.956800317999999,-1.783599964,0.9419936487669394,-0.3356306983616785,-0.7232508066520696,0.6905854550141717
592,0.1300128102,-0.3988593519,1.1721735,0.3083238006,0.273700006,0.08732499599,-0.09380000234,0.5389999971,-10.14299967,-1.950200009,0.9499168876539661,-0.31250265046844394,-0.739008917220659,0.6736956436465573
593,0.1361491084,-0.3980922997,1.18120563,0.2625776529,0.3080000067,0.013825000380000002,0.04059999883,0.7055999695999999,-10.71140053,-2.116800055,0.9572723761178167,-0.28918782464299775,-0.7543727046201638,0.6564463592130426
594,0.1361491084,-0.3980922997,1.18120563,0.2625776529,0.3080000067,0.013825000380000002,0.04059999883,0.7055999695999999,-10.71140053,-2.116800055,0.964055717898415,-0.2657001557910186,-0.7693339709828789,0.6388468056519613
595,0.1468876302,-0.3881208301,1.042078495,0.5603951812,0.3080000067,0.013825000380000002,0.04059999883,0.7055999695999999,-10.71140053,-2.116800055,0.9702628586987844,-0.24205368212374467,-0.7838847332197936,0.6209063737995715
596,0.1503392905,-0.3854362071,1.0680859090000001,0.6481021047,0.358049984,-0.08767500401,0.1505000067,0.5389999971,-10.28999953,-1.871799996,0.9758900886082343,-0.2182625367675648,-0.7980172272802395,0.6026346363792564
597,0.1530239284,-0.3773823082,0.9467216134,0.8950014114,0.358049984,-0.08767500401,0.1505000067,0.5389999971,-10.28999953,-1.871799996,0.9809340443197179,-0.19434093931686597,-0.8117239122946613,0.5840413428936766
598,0.1557085514,-0.3674108386,0.8473312854999999,1.184018612,0.41037501340000004,-0.18375,0.050224998,0.37239998799999996,-9.545199776,-1.734600011,0.9853917111400265,-0.1703031873352067,-0.8249974745983022,0.565136414422592
599,0.1587767005,-0.3578228652,0.7822194695,1.378533244,0.41037501340000004,-0.18375,0.050224998,0.37239998799999996,-9.545199776,-1.734600011,0.9892604247916259,-0.146163647809884,-0.8378308316336582,0.5459299383291344
600,0.1606943011,-0.34708434340000005,0.6788390279000001,1.580173492,0.4145750093,-0.32235000129999997,0.02887499958,0.48019998740000003,-10.04499977,-1.597400025,0.9925378730050517,-0.12193674856501568,-0.850217135729614,0.5264321628773561
601,0.1626118869,-0.33711284399999997,0.5968793631,1.693467021,0.4145750093,-0.32235000129999997,0.02887499958,0.48019998740000003,-10.04499977,-1.597400025,0.9952220969009173,-0.09763696963825275,-0.8621497777552506,0.5066534917639194
602,0.1641459614,-0.3275249004,0.522620976,1.75500834,0.4178999853,-0.43330000399999996,0.1163750017,0.303799995,-10.57419996,-1.558199945,0.9973114921607056,-0.07327883462628881,-0.8736223906463696,0.4866044785668563
603,0.1683646739,-0.3194710016,0.6123880147999999,1.7067956919999998,0.4178999853,-0.43330000399999996,0.1163750017,0.303799995,-10.57419996,-1.558199945,0.9988048099856441,-0.048876902004334276,-0.8846288528028552,0.46629582111434825
604,0.1679811478,-0.3106500804,0.4320708215,1.7186077830000002,0.393224988,-0.515549984,0.1548750067,0.1372000042,-9.604000187,-1.4895999519999998,0.9997011578430937,-0.024445756424744884,-0.8951632913550622,0.44573835577653836
605,0.168748185,-0.303363204,0.3464057148,1.6557179690000001,0.393224988,-0.515549984,0.1548750067,0.1372000042,-9.604000187,-1.4895999519999998,1.0,-2.4492935982947064e-16,-0.9052200852974819,0.4249430516834222
606,0.1679811478,-0.2964598835,0.21789252760000002,1.5883817669999998,0.3794000053,-0.5507249879999999,0.18462500329999998,0.1077999994,-10.07439997,-0.8722000152,1.0,0.0,-0.914793868488021,0.4039210048718948
607,0.1664470732,-0.2914741337,0.08638705312999999,1.4328876730000002,0.3794000053,-0.5507249879999999,0.18462500329999998,0.1077999994,-10.07439997,-0.8722000152,0.9997351589651408,0.023013298958311893,-0.9238795325112867,0.38268343236508984
608,0.1645294875,-0.2853378356,-0.029907375570000002,1.298981905,0.3431750107,-0.5134500027000001,0.2721250033,-1.76400007,-9.241400182000001,-0.9114000216,0.9989407761421107,0.0460144081848005,-0.9324722294043557,0.3612416661871533
609,0.1637624502,-0.281119138,-0.07260989397999999,1.171984315,0.3431750107,-0.5134500027000001,0.2721250033,-1.76400007,-9.241400182000001,-0.9114000216,0.9976172723012476,0.06899114440432493,-0.9405673742435676,0.3396071473166616
610,0.1614613384,-0.2761333883,-0.1770857573,1.1189455990000001,0.21927499530000003,-0.4355749893,0.1601249933,-2.028600022,-8.702400112000001,0.02940000026,0.9957653484788052,0.091931337251689,-0.9481606475909659,0.3177914195819017
611,0.1591602266,-0.2722982168,-0.24594841899999997,1.023034096,0.21927499530000003,-0.4355749893,0.1601249933,-2.028600022,-8.702400112000001,0.02940000026,0.9933859856056265,0.11482283571806566,-0.95524799779908,0.29580612350127033
612,0.1564755887,-0.2707641423,-0.31694966550000003,0.8300147653,0.066674999,-0.288224988,0.06194999932999999,-3.194800049,-9.868599701,0.8525999755,0.9904804439875632,0.1376535145871682,-0.961825643172819,0.27366299007208306
613,0.1549415141,-0.2692300677,-0.3044743538,0.6845789552,-0.1349250007,-0.132475003,-0.015925000459999998,-3.263400042,-10.17239988,2.107000035,0.9870502626379128,0.16041128085776024,-0.9678900739873225,0.25137383451110273
614,0.1530239284,-0.2692300677,-0.2523243725,0.6845789552,-0.1349250007,-0.132475003,-0.015925000459999998,-3.263400042,-10.17239988,2.107000035,0.9830972584622324,0.18308408014910132,-0.9734380543606929,0.22895054995013397
615,0.15225689109999999,-0.2661619186,-0.26469689609999997,0.488422215,-0.1349250007,-0.132475003,-0.015925000459999998,-3.263400042,-10.17239988,2.107000035,0.9786235252959552,0.2056599030859366,-0.978466623980609,0.2064051010900399
616,0.151873365,-0.2673124671,-0.23794259129999998,0.34786713119999996,-0.2950500107,0.04462499916999999,-0.1588999987,-2.685199893,-9.339400089,2.832200044,0.9736314327953242,0.2281267916596472,-0.9829730996839018,0.18374951781657037
617,0.1480381787,-0.2676959932,-0.3767613769,0.2362114936,-0.2950500107,0.04462499916999999,-0.1588999987,-2.685199893,-9.339400089,2.832200044,0.9681236251822273,0.2504728455621933,-0.9869550768882456,0.16099588878141322
618,0.1419018805,-0.2688465416,-0.6139558554,0.1099421382,-0.341950016,0.20370000600000002,-0.3947999907,-1.783599964,-9.486399948999999,2.557800072,0.9621030198436006,0.27268622848949375,-0.9904104308752051,0.13815635495188236
619,0.13423150779999998,-0.2699970901,-0.8652043343000001,0.0008576214314,-0.341950016,0.20370000600000002,-0.3947999907,-1.783599964,-9.486399948999999,2.557800072,0.9555728057861408,0.29475517441090415,-0.99333731792395,0.11524310313269767
620,0.1250270605,-0.26846301559999997,-1.107338071,0.07742281258,-0.2864750147,0.323224988,-0.30625,-0.9016000018000001,-11.99519978,1.479799932,0.9485364419471455,0.3166679938014725,-0.9957341762950345,0.0922683594633023
621,0.1108368784,-0.26846301559999997,-1.563087106,0.05679409951,-0.2864750147,0.323224988,-0.30625,-0.9016000018000001,-11.99519978,1.479799932,0.9409976553623765,0.3384130798336704,-0.9975997270637169,0.0692443828941918
622,0.10009835660000001,-0.26846301559999997,-1.717310905,0.04411029071000001,-0.24377500530000001,0.3818499947,-0.1503250027,-0.1666000091,-11.80900042,0.24500000370000002,0.9329604391919148,0.35997891452532227,-0.9989329748023724,0.04618345864574003
623,0.08820927888,-0.2680795193,-1.877575397,0.05260524154,-0.24377500530000001,0.3818499947,-0.1503250027,-0.1666000091,-11.80900042,0.24500000370000002,0.9244290506050568,0.38135407484047346,-0.9997332081116372,0.02309789165300093
624,0.07555316389,-0.26692894100000003,-2.040555239,0.10450807210000002,-0.207549994,0.385,-0.07139999866,0.1274000026,-11.59339969,-2.0089999819999997,0.9154080085253663,0.40252723873996754,-1.0,1.2246467991473532e-16
625,0.06481464207,-0.2650113702,-2.061644077,0.1852896959,-0.207549994,0.385,-0.07139999866,0.1274000026,-11.59339969,-2.0089999819999997,0.9059020912370834,0.4234871911785278,-0.9997332081116372,-0.023097891653000687
626,0.05484316126,-0.2627102435,-2.03734684,0.24836342039999998,-0.13702499869999998,0.39462498659999995,-0.10447499630000001,0.07840000372,-11.08380041,-2.8518000839999997,0.8959163338541518,0.44422283004516544,-0.9989329748023724,-0.046183458645739334
627,0.04487167671,-0.2584915459,-2.027208328,0.4061373472,-0.13702499869999998,0.39462498659999995,-0.10447499630000001,0.07840000372,-11.08380041,-2.8518000839999997,0.8854560256532099,0.46472317204376856,-0.997599727063717,-0.0692443828941911
628,0.03451667354,-0.2577244937,-2.047257662,0.3233477473,-0.107099998,0.35839999200000006,-0.229424994,-1.028999968,-12.08340039,-2.802800131,0.8745267072719554,0.48497735851075746,-0.9957341762950346,-0.09226835946330161
629,0.02454519086,-0.2558069229,-2.034838676,0.3370813131,-0.107099998,0.35839999200000006,-0.229424994,-1.028999968,-12.08340039,-2.802800131,0.8631341677743689,0.5049746611667238,-0.99333731792395,-0.11524310313269787
630,0.01610778086,-0.2542728484,-1.953350902,0.3277216256,-0.150849998,0.2857749987,-0.18339999199999998,-3.2731999160000003,-13.60240011,-2.6165999,0.8512844415843512,0.524704487799008,-0.9904104308752052,-0.13815635495188214
631,0.008437409066,-0.2504376471,-1.84792006,0.43589785700000006,-0.150849998,0.2857749987,-0.18339999199999998,-3.2731999160000003,-13.60240011,-2.6165999,0.838983805289396,0.5441563878722043,-0.9869550768882457,-0.160995888781413
632,-0.001150555792,-0.2454519123,-1.861455083,0.5918500422999999,-0.2597000027,0.2133249927,-0.212275002,-3.675,-12.88700056,-0.7350000292000001,0.8262387743159949,0.563320058063622,-0.9829730996839018,-0.18374951781657015
633,-0.0130396327,-0.2381650507,-2.001842976,0.8206635714,-0.3044999933,0.10447499630000001,-0.33285000800000003,-3.6357999210000003,-12.12259989,-0.5292000137,0.8130560994785325,0.5821853477207707,-0.978466623980609,-0.20640510109003968
634,-0.0425705649,-0.2381650507,-2.336864233,0.8206635714,-0.3044999933,0.10447499630000001,-0.33285000800000003,-3.6357999210000003,-12.12259989,-0.5292000137,0.7994427634035012,0.6007422642379788,-0.9734380543606929,-0.22895054995013375
635,-0.04985741898,-0.21438689530000002,-2.4874494080000003,1.3814611430000001,-0.3044999933,0.10447499630000001,-0.33285000800000003,-3.6357999210000003,-12.12259989,-0.5292000137,0.7854059768309289,0.6189809783492982,-0.9678900739873226,-0.2513738345111025
636,-0.05484316126,-0.21131874620000002,-2.4874012469999998,1.3976315259999998,-0.315175004,-0.055650001170000005,-0.3297000027,-3.2535998760000004,-12.29899995,0.4704000041,0.7709531747949796,0.6368918293348892,-0.9618256431728192,-0.27366299007208245
637,-0.07286853343,-0.202497825,-2.7749917510000004,1.4912240509999999,-0.315175004,-0.055650001170000005,-0.3297000027,-3.2535998760000004,-12.29899995,0.4704000041,0.7560920126857489,0.6544653301381314,-0.9552479977990801,-0.2958061235012701
638,-0.09357853979,-0.1955944896,-2.987386465,1.3831862209999999,-0.310975008,-0.1741249967,-0.2411499953,-2.9008000369999998,-11.57379994,-0.6174000099,0.7408303621943414,0.671692172390747,-0.9481606475909657,-0.3177914195819019
639,-0.1089192852,-0.1894581914,-3.1721231939999996,1.418660045,-0.310975008,-0.1741249967,-0.2411499953,-2.9008000369999998,-11.57379994,-0.6174000099,0.7251763071433766,0.688563231343277,-0.9405673742435676,-0.33960714731666136
640,-0.1269446611,-0.1863900423,-3.29067874,1.205440402,-0.2854249907,-0.25830000399999997,-0.1130500007,-2.636199939,-11.71100051,-0.7545999959,0.7091381392051332,0.7050695706982972,-0.9324722294043557,-0.3612416661871531
641,-0.1453535557,-0.1802537441,-3.3948321339999996,1.208138704,-0.2854249907,-0.25830000399999997,-0.1130500007,-2.636199939,-11.71100051,-0.7545999959,0.6927243535095995,0.7212024473438143,-0.9238795325112867,-0.38268343236508967
642,-0.1629954129,-0.174500972,-3.4245579239999997,1.202753425,-0.22242500070000001,-0.288224988,-0.04479999900000001,-2.234400001,-10.88779943,-0.7938000023,0.6759436441447544,0.7369533159843367,-0.9147938684880211,-0.4039210048718946
643,-0.1814043075,-0.1702822596,-3.483054638,1.114701271,-0.22242500070000001,-0.288224988,-0.04479999900000001,-2.234400001,-10.88779943,-0.7938000023,0.6588048995514658,0.7523138336671625,-0.9052200852974821,-0.4249430516834216
644,-0.19904614980000002,-0.1664470732,-3.4833741189999996,1.023011804,-0.1200500023,-0.2817500067,-0.07787499666,-1.567999965,-10.48600051,-0.2841999918,0.6413171978154422,0.7672758642014937,-0.8951632913550626,-0.44573835577653775
645,-0.21745504440000002,-0.1618448496,-3.530733585,0.9924300909,-0.1200500023,-0.2817500067,-0.07787499666,-1.567999965,-10.48600051,-0.2841999918,0.6234898018587336,0.7818314824680297,-0.8846288528028555,-0.4662958211143477
646,-0.23586393890000001,-0.1564755887,-3.5743417739999996,0.9530591965,-0.00682499975,-0.289275012,-0.059675001500000005,-1.803200004,-10.65260012,0.48019998740000003,0.6053321545333282,0.7959729786167611,-0.8736223906463695,-0.48660447856685646
647,-0.2508211732,-0.15225689109999999,-3.434704065,0.973336339,-0.00682499975,-0.289275012,-0.059675001500000005,-1.803200004,-10.65260012,0.48019998740000003,0.5868538736194426,0.8096928621507388,-0.8621497777552507,-0.5066534917639193
648,-0.2653948665,-0.1472711414,-3.300362587,0.9431783557,0.11042499900000001,-0.2786000013,-0.07682499766,-1.4895999519999998,-10.427200099999999,1.156400007,0.5680647467311558,0.8229838658936564,-0.8502171357296141,-0.5264321628773558
649,-0.2795850635,-0.14612059300000002,-3.17974925,0.7596088648,0.11042499900000001,-0.2786000013,-0.07682499766,-1.4895999519999998,-10.427200099999999,1.156400007,0.5489747261320866,0.8358389498391424,-0.8378308316336585,-0.5459299383291343
650,-0.2933917344,-0.1472711414,-3.071195364,0.4981753528,0.188475008,-0.2530500007,-0.084174999,-1.323000053,-11.37780013,1.0192000209999998,0.5295939234638565,0.8482513048797267,-0.8249974745983024,-0.5651364144225919
651,-0.30643135309999997,-0.14612059300000002,-2.951393843,0.4142386615,0.188475008,-0.2530500007,-0.084174999,-1.323000053,-11.37780013,1.0192000209999998,0.509932604390136,0.8602143564135005,-0.8117239122946613,-0.5840413428936764
652,-0.3183204532,-0.14497002960000002,-2.792427778,0.3634918928,0.2395749927,-0.1559249973,0.042700000999999994,-2.126599929,-11.82860017,1.577799985,0.49000118315910496,0.8717217678265682,-0.7980172272802396,-0.6026346363792563
653,-0.329058975,-0.1430524439,-2.613137245,0.3696442544,0.2983749866,-0.1015000033,0.090825001,-1.76400007,-10.71140053,2.116800055,0.46981021708721404,0.8827674438494347,-0.7838847332197939,-0.6209063737995709
654,-0.329058975,-0.1430524439,-2.613137245,0.3696442544,0.2983749866,-0.1015000033,0.090825001,-1.76400007,-10.71140053,2.116800055,0.44937040096716135,0.8933455337855631,-0.7693339709828791,-0.6388468056519611
655,-0.3585898876,-0.13116335869999998,-2.396466732,0.7204371691,0.2983749866,-0.1015000033,0.090825001,-1.76400007,-10.71140053,2.116800055,0.42869256140305423,0.9034504346103822,-0.7543727046201637,-0.6564463592130427
656,-0.362808615,-0.12732817230000001,-2.361512661,0.8163118362,0.3431750107,-0.06527500033,0.002274999917,-1.6365999580000001,-9.300200009,1.6856000569999998,0.4077876510757502,0.913076793939109,-0.7390089172206591,-0.6736956436465572
657,-0.3731636107,-0.1204248443,-2.284174204,0.9653497338,0.3431750107,-0.06527500033,0.002274999917,-1.6365999580000001,-9.300200009,1.6856000569999998,0.38666674294141884,0.9222195128618103,-0.7232508066520698,-0.6905854550141716
658,-0.38236805799999996,-0.11352150890000001,-2.15043354,1.069465041,0.345274992,-0.0311499995,-0.09380000234,-1.430799979,-9.447199869,0.8917999819,0.3653410243663952,0.9308737486442041,-0.7071067811865477,-0.7071067811865475
659,-0.3950241506,-0.1066181734,-2.239660501,1.15380168,0.345274992,-0.0311499995,-0.09380000234,-1.430799979,-9.447199869,0.8917999819,0.3438217912014317,0.9390349172927699,-0.6905854550141718,-0.7232508066520695
660,-0.4061461985,-0.1023994684,-2.245537996,1.075943828,0.311150012,-0.01610000029,-0.04690000117,-1.666000018,-9.574599981,0.5488000169,0.32212044179849075,0.9466986959828059,-0.6736956436465574,-0.7390089172206589
661,-0.4138165712,-0.09971483797,-2.055482388,0.9341411591,0.311150012,-0.01610000029,-0.04690000117,-1.666000018,-9.574599981,0.5488000169,0.300248470973239,0.9538610253481542,-0.6564463592130431,-0.7543727046201636
662,-0.4272397161,-0.09703020751000001,-2.090556622,0.826413691,0.22785000800000002,0.01050000042,0.08540000199999999,-1.75420005,-9.907800364,0.303799995,0.27821746391645275,0.9605181116313722,-0.6388468056519617,-0.7693339709828786
663,-0.435677141,-0.09434557706,-2.085783005,0.7431741953000001,0.22785000800000002,0.01050000042,0.08540000199999999,-1.75420005,-9.907800364,0.303799995,0.2560390900575472,0.9666664286932195,-0.6209063737995711,-0.7838847332197937
664,-0.44679918890000003,-0.09012687206,-2.010708332,0.7205933332,0.1851499987,0.061774999500000004,0.1249499977,-1.283799973,-9.751000047,0.6761999831000001,0.2337250968834912,0.9723027198803892,-0.6026346363792565,-0.7980172272802394
665,-0.4560036361,-0.08629168570000001,-2.068706036,0.7759057879000001,0.1851499987,0.061774999500000004,0.1249499977,-1.283799973,-9.751000047,0.6761999831000001,0.2112873037163728,0.9774239997504999,-0.584041342893677,-0.8117239122946609
666,-0.4667421579,-0.08475761116000001,-2.103204966,0.6582657695,0.1520749927,0.07139999866,0.12915000199999999,-1.391600046,-10.427200099999999,0.2841999918,0.18873759545291668,0.9820275556534304,-0.5651364144225918,-0.8249974745983024
667,-0.4763301015,-0.08245649933999999,-2.0569772719999997,0.6060969829999999,0.1520749927,0.07139999866,0.12915000199999999,-1.391600046,-10.427200099999999,0.2841999918,0.16608791626926742,0.9861109491681617,-0.5459299383291345,-0.8378308316336582
668,-0.4859180748,-0.07977186888,-2.019620895,0.5973743796000001,0.1361500037,0.07244999766,0.23065000530000002,-1.597400025,-10.51539955,0.2744000085,0.14335026329437342,0.9896720173943657,-0.5264321628773562,-0.850217135729614
669,-0.49588954450000006,-0.07938835025,-2.019583464,0.4618190229,0.1361500037,0.07244999766,0.23065000530000002,-1.597400025,-10.51539955,0.2744000085,0.120536680255323,0.992708874098054,-0.5066534917639199,-0.8621497777552503
670,-0.5077786446,-0.08015538752000001,-2.008056641,0.2799532712,0.1340499973,0.07455000401,0.2861250067,-1.2054000329999999,-10.70160007,-0.1372000042,0.09765925109799817,0.9952199107106822,-0.4866044785668564,-0.8736223906463695
671,-0.5142984389999999,-0.08130594343,-1.9265520569999999,0.1508176774,0.1340499973,0.07455000401,0.2861250067,-1.2054000329999999,-10.70160007,-0.1372000042,0.07473009358642438,0.9972037971811801,-0.4662958211143483,-0.8846288528028552
672,-0.5250369906,-0.08015538752000001,-1.986578226,0.1781960726,0.10832500099999999,0.07034999967,0.419474988,-1.597400025,-10.71140053,-0.1274000026,0.051761352884209494,0.9986594826804561,-0.44573835577653803,-0.8951632913550625
673,-0.5323238373,-0.08053890616,-1.843643308,0.1197912768,0.11584999800000001,0.059675001500000005,0.450449996,-0.9701999947,-9.535399902,-0.1372000042,0.02876519512146747,0.9995861961580021,-0.4249430516834219,-0.9052200852974821
674,-0.5323238373,-0.08053890616,-1.843643308,0.1197912768,0.11584999800000001,0.059675001500000005,0.450449996,-0.9701999947,-9.535399902,-0.1372000042,0.0057538009506376475,0.9999834467503051,-0.40392100487189525,-0.9147938684880208
675,-0.55686903,-0.08053890616,-1.7644653319999999,0.04926455766,0.11584999800000001,0.059675001500000005,0.450449996,-0.9701999947,-9.535399902,-0.1372000042,-0.017260640905388452,0.9998510240408495,-0.38268343236509034,-0.9238795325112865
676,-0.5618547797,-0.07977186888,-1.8473724130000002,0.08895717561000001,0.08382499933,0.02327500075,0.428049984,-1.225,-8.986599958,-0.19599999559999998,-0.0402659401094149,0.9991889981715697,-0.3612416661871529,-0.9324722294043558
677,-0.5656899214,-0.07938835025,-1.651946306,0.09435668588,0.08382499933,0.02327500075,0.428049984,-1.225,-8.986599958,-0.19599999559999998,-0.06324991116694548,0.9979977198056985,-0.33960714731666164,-0.9405673742435675
678,-0.5768119693,-0.08015538752000001,-1.696151376,0.030403858050000003,0.071049999,0.008399999812,0.40985000130000004,-0.8231999889,-8.633799827,-0.303799995,-0.08620037988061943,0.9962778199420265,-0.31779141958190216,-0.9481606475909656
679,-0.5833318233,-0.08015538752000001,-1.686207414,0.0196676366,0.071049999,0.008399999812,0.40985000130000004,-0.8231999889,-8.633799827,-0.303799995,-0.10910518979866747,0.994030209580673,-0.2958061235012712,-0.9552479977990798
680,-0.5921527147,-0.07977186888,-1.61752665,0.030850667510000002,0.067900002,-0.029925000669999997,0.3874499893,-0.8623999953,-8.633799827,-0.2841999918,-0.13195220865396617,0.9912560792405463,-0.2736629900720831,-0.961825643172819
681,-0.5982890129,-0.08015538752000001,-1.614547491,0.004755791277,0.067900002,-0.029925000669999997,0.3874499893,-0.8623999953,-8.633799827,-0.2841999918,-0.15472933479028134,0.9879568983287464,-0.25137383451110235,-0.9678900739873226
682,-0.6055758595,-0.07938835025,-1.4946293830000001,0.04508056119,0.037975001339999995,-0.06422500133999999,0.35857499600000003,-1.048600008,-8.859199846000001,-0.7153999895,-0.1774245035722982,0.9841344143622474,-0.22895054995013406,-0.9734380543606929
683,-0.6117121577,-0.07977186888,-1.428273439,0.01755637862,0.037975001339999995,-0.06422500133999999,0.35857499600000003,-1.048600008,-8.859199846000001,-0.7153999895,-0.20002569377604434,0.9797906520422677,-0.20640510109003998,-0.9784666239806089
684,-0.6163144112,-0.07977186888,-1.291617513,0.012189842759999998,0.003849999979,-0.08330000401000001,0.30625,0.1568000074,-8.780800271,-1.0192000209999998,-0.22252093395631434,0.9749279121818236,-0.18374951781657087,-0.9829730996839017
685,-0.620916605,-0.07938835025,-1.179497123,0.019395288080000003,0.003849999979,-0.08330000401000001,0.30625,0.1568000074,-8.780800271,-1.0192000209999998,-0.24489830878773092,0.9695487704870288,-0.16099588878141285,-0.9869550768882457
686,-0.6278199553,-0.07938835025,-1.2254334690000002,0.0060728192330000005,-0.03255000025,-0.134575001,0.3010000134,-0.5879999869,-8.72199986,-0.4410000175,-0.2671459653760778,0.9636560761927896,-0.13815635495188244,-0.9904104308752051
687,-0.6320386528999999,-0.0778542757,-1.128831863,0.08030593394999999,-0.03255000025,-0.134575001,0.3010000134,-0.5879999869,-8.72199986,-0.4410000175,-0.28925211953656765,0.9572529505536158,-0.11524310313269816,-0.9933373179239499
688,-0.6362573504,-0.0778542757,-1.062642336,0.06144046411,-0.059150002,-0.1559249973,0.266875,-0.2939999934,-9.104200196,-0.5096000104999999,-0.3112050620357107,0.9503427851903488,-0.0922683594633028,-0.9957341762950345
689,-0.6400925517,-0.07670371979,-0.9834348559,0.1058900282,-0.059150002,-0.1559249973,0.266875,-0.2939999934,-9.104200196,-0.5096000104999999,-0.332993164793488,0.9429292402936802,-0.06924438289419185,-0.9975997270637169
690,-0.6431607008,-0.07516964525,-0.8826599120999999,0.1551447362,-0.07507499932999999,-0.181474998,0.23275000329999998,-0.1469999967,-9.36879971,0.03920000186,-0.3546048870425357,0.9350162426854148,-0.046183458645739195,-0.9989329748023724
691,-0.6458453536,-0.07056742162,-0.7884266973,0.3551743329,-0.07507499932999999,-0.181474998,0.23275000329999998,-0.1469999967,-9.36879971,0.03920000186,-0.376028781441082,0.9266079837385036,-0.023097891653000992,-0.9997332081116372
692,-0.6508311032999999,-0.06711575388999999,-0.8463745712999999,0.44766753909999996,-0.08049999833,-0.19547500129999998,0.1869000053,-0.2841999918,-8.565200126,0.2155999988,-0.3972535001364011,0.9177089171569481,-1.8369701987210297e-16,-1.0
693,-0.6535156965,-0.06251353025,-0.7772070765000001,0.5681263208,-0.09117500066999999,-0.210350008,0.11427500369999999,-0.09799999780999999,-9.427600121000001,-0.19599999559999998,-0.4182678007755649,0.9083237566167541,0.023097891653000625,-0.9997332081116372
694,-0.6535156965,-0.06251353025,-0.7772070765000001,0.5681263208,-0.09117500066999999,-0.210350008,0.11427500369999999,-0.09799999780999999,-9.427600121000001,-0.19599999559999998,-0.43906055246031794,0.8984574732691806,0.046183458645738834,-0.9989329748023725
695,-0.6573508978,-0.054076123979999995,-0.5790514946,0.6554787159000001,-0.09117500066999999,-0.210350008,0.11427500369999999,-0.09799999780999999,-9.427600121000001,-0.19599999559999998,-0.45962074164291167,0.8881152931076122,0.06924438289419149,-0.997599727063717
696,-0.6573508978,-0.05062445626,-0.45364043119999997,0.6768286228,-0.106049999,-0.21892500399999998,0.12057499769999999,-0.08819999619999999,-9.682399762000001,-0.048999998899999994,-0.4799374779597861,0.8773026941994422,0.09226835946330156,-0.9957341762950346
697,-0.6608025432,-0.04909038171,-0.5088183284000001,0.5916884542,-0.106049999,-0.21892500399999998,0.12057499769999999,-0.08819999619999999,-9.682399762000001,-0.048999998899999994,-0.4999999999999998,0.8660254037844388,0.11524310313269692,-0.9933373179239501
698,-0.6623366475,-0.0479398258,-0.4677959681,0.5342423916,-0.105,-0.18584999800000002,0.16327499869999998,-0.07840000372,-10.44679985,0.3332000181,-0.5197976810053546,0.8542893952411299,0.13815635495188205,-0.9904104308752052
699,-0.6615695953,-0.04717278853,-0.3018852472,0.4366004765,-0.105,-0.18584999800000002,0.16327499869999998,-0.07840000372,-10.44679985,0.3332000181,-0.539320034499199,0.8421008849228119,0.16099588878141247,-0.9869550768882458
700,-0.6627201438,-0.04640575126,-0.277395606,0.3583725989,-0.106049999,-0.17080000399999998,0.210350008,-0.17639999239999998,-10.33899949,0.4410000175,-0.5585567198409296,0.8294663288648558,0.1837495178165705,-0.9829730996839018
701,-0.6623366475,-0.04717278853,-0.1843143702,0.2238910496,-0.106049999,-0.17080000399999998,0.210350008,-0.17639999239999998,-10.33899949,0.4410000175,-0.5774975477032398,0.8163924193650651,0.2064051010900396,-0.978466623980609
702,-0.6619530915999999,-0.04832334444,-0.1171747744,0.106724605,-0.12110000130000001,-0.1655500007,0.2283750033,-0.1568000074,-10.55460021,0.6174000099,-0.5961324854692253,0.8028860814388825,0.22895054995013367,-0.9734380543606929
703,-0.6619530915999999,-0.04717278853,-0.08118753135,0.14633414150000001,-0.12110000130000001,-0.1655500007,0.2283750033,-0.1568000074,-10.55460021,0.6174000099,-0.614451662546481,0.7889544691513355,0.251373834511102,-0.9678900739873227
704,-0.6627201438,-0.04678926989,-0.09851671755000001,0.1341326386,-0.09537499666000002,-0.11427500369999999,0.280700016,-0.2646000069,-10.3586004,0.7153999895,-0.6324453755953772,0.7746049618276547,0.2736629900720828,-0.961825643172819
705,-0.6619530915999999,-0.04602223262,-0.03614756465,0.14267537,-0.09537499666000002,-0.11427500369999999,0.280700016,-0.2646000069,-10.3586004,0.7153999895,-0.6501040936687441,0.7598451601445789,0.29580612350127006,-0.9552479977990801
706,-0.6623366475,-0.04640575126,-0.04234748334,0.08357618749,-0.08049999833,-0.1163750017,0.2817500067,-0.1372000042,-10.12339993,0.38220000789999997,-0.6674184632602443,0.7446828821044122,0.3177914195819018,-0.9481606475909657
707,-0.6623366475,-0.04602223262,-0.03612490371,0.07590876519999999,-0.08049999833,-0.1163750017,0.2817500067,-0.1372000042,-10.12339993,0.38220000789999997,-0.6843793132587566,0.7291261588939686,0.33960714731666136,-0.9405673742435676
708,-0.6623366475,-0.04563871399,-0.029681557789999997,0.08271846175,-0.08575000167,-0.1100749993,0.34160000799999996,-0.03920000186,-10.67219987,0.1469999967,-0.7009776598061493,0.7131832306305963,0.36124166618715264,-0.9324722294043559
709,-0.6623366475,-0.04602223262,-0.02300228551,0.04568151385,-0.08575000167,-0.1100749993,0.34160000799999996,-0.03920000186,-10.67219987,0.1469999967,-0.7172047110558698,0.6968625419975351,0.38268343236509,-0.9238795325112866
710,-0.6623366475,-0.04525519535,-0.014355009419999998,0.06773020327000001,-0.08259999633,-0.10360000130000001,0.37134998799999996,-0.39199999119999995,-9.623599935,0.1469999967,-0.733051871829826,0.6801727377709197,0.4039210048718949,-0.914793868488021
711,-0.6615695953,-0.04487167671,0.030963374300000002,0.06785857677,-0.08259999633,-0.10360000130000001,0.37134998799999996,-0.39199999119999995,-9.623599935,0.1469999967,-0.7485107481711012,0.6631226582407952,0.42494305168342156,-0.9052200852974822
712,-0.6623366475,-0.04410463944,-0.022821776569999997,0.09174225479,-0.08154999732999998,-0.08557499766000001,0.34475001340000005,-0.1469999967,-9.378600168,0.1666000091,-0.7635731517900782,0.6457213345285768,0.44573835577653775,-0.8951632913550626
713,-0.6623366475,-0.04180352762,-0.023745751009999996,0.1913466454,-0.07402500033,-0.07909999967,0.32235000129999997,-0.17639999239999998,-8.908199799,0.2841999918,-0.7782311044016335,0.6279779838034244,0.46629582111434725,-0.8846288528028557
714,-0.6623366475,-0.04180352762,-0.023745751009999996,0.1913466454,-0.07402500033,-0.07909999967,0.32235000129999997,-0.17639999239999998,-8.908199799,0.2841999918,-0.7924768419510902,0.609902004400073,0.486604478566856,-0.8736223906463697
715,-0.6604190469,-0.032599080350000004,0.05605361611,0.493447274,-0.07402500033,-0.07909999967,0.32235000129999997,-0.17639999239999998,-8.908199799,0.2841999918,-0.8063028187266987,0.5915029708407054,0.5066534917639195,-0.8621497777552506
716,-0.6604190469,-0.03144852445,0.04694134369,0.5021663308,-0.060200000999999996,-0.07490000367,0.23065000530000002,-0.09799999780999999,-8.006599723999999,0.1469999967,-0.8197017113564642,0.5727906287634985,0.5264321628773557,-0.8502171357296142
717,-0.65811795,-0.02722982131,0.1433617473,0.5907623768,-0.060200000999999996,-0.07490000367,0.23065000530000002,-0.09799999780999999,-8.006599723999999,0.1469999967,-0.8326664226872063,0.5537748897605332,0.5459299383291342,-0.8378308316336585
718,-0.6562003493,-0.02301111631,0.2013138384,0.6571354866,-0.08907500267000001,-0.08014999866,0.1408750033,-0.07840000372,-8.575,0.01960000093,-0.8451900855437946,0.5344658261278012,0.5651364144225914,-0.8249974745983026
719,-0.6542827487,-0.02071000449,0.25451174379999997,0.6100233197,-0.08907500267000001,-0.08014999866,0.1408750033,-0.07840000372,-8.575,0.01960000093,-0.8572660663665668,0.5148736655300922,0.5840413428936766,-0.8117239122946612
720,-0.654666245,-0.0176418554,0.1602337211,0.608807683,-0.106049999,-0.06422500133999999,0.127050004,-0.048999998899999994,-9.055200243,0.38220000789999997,-0.8688879687250064,0.4950087855835815,0.6026346363792562,-0.7980172272802397
721,-0.6519816518,-0.015340744519999998,0.2547878623,0.5733422040999999,-0.106049999,-0.06422500133999999,0.127050004,-0.048999998899999994,-9.055200243,0.38220000789999997,-0.8800496367058185,0.47488170835899424,0.6209063737995708,-0.783884733219794
722,-0.6508311032999999,-0.0130396327,0.254635185,0.5401471257,-0.11567500230000001,-0.027825000580000002,0.14629999400000002,-0.03920000186,-9.486399948999999,0.49979999070000003,-0.8907451581736053,0.45450309480825196,0.6388468056519606,-0.7693339709828795
723,-0.6496804953,-0.01188907679,0.25501474739999996,0.456569016,-0.11567500230000001,-0.027825000580000002,0.14629999400000002,-0.03920000186,-9.486399948999999,0.49979999070000003,-0.900968867902419,0.43388373911755823,0.6564463592130424,-0.754372704620164
724,-0.6496804953,-0.011505558159999998,0.19160541890000002,0.35695812109999997,-0.140175004,-0.0033249999579999996,0.1569750047,-0.1077999994,-10.17239988,0.6958000228,-0.9107153505765304,0.41303456298991154,0.6736956436465574,-0.7390089172206589
725,-0.6496804953,-0.01265611406,0.1487309188,0.20127831399999999,-0.140175004,-0.0033249999579999996,0.1569750047,-0.1077999994,-10.17239988,0.6958000228,-0.9199794436588242,0.39196660986007514,0.6905854550141715,-0.7232508066520699
726,-0.6489135027,-0.013423151340000002,0.1594741046,0.10343278199999999,-0.1604750013,0.02765000075,0.24010000469999998,0.1568000074,-10.93680055,0.7350000292000001,-0.9287562401253023,0.3706910390450675,0.7071067811865475,-0.7071067811865477
727,-0.6485299468,-0.01188907679,0.15281678740000001,0.156928882,-0.1604750013,0.02765000075,0.24010000469999998,0.1568000074,-10.93680055,0.7350000292000001,-0.937041091064247,0.3492191198332725,0.7232508066520695,-0.6905854550141718
728,-0.6485299468,-0.011505558159999998,0.1188412234,0.1294032484,-0.1274000037,0.06492500067000001,0.331974988,0.02940000026,-10.36839969,1.195600013,-0.9448296081386656,0.32756222551529895,0.7390089172206586,-0.6736956436465578
729,-0.6481464505,-0.01073852088,0.10436373199999999,0.1299900413,-0.1274000037,0.06492500067000001,0.331974988,0.02940000026,-10.36839969,1.195600013,-0.9521176659107141,0.30573182735975285,0.7543727046201638,-0.6564463592130427
730,-0.6458453536,-0.008437409066,0.2017742693,0.2077786475,-0.10290000199999999,0.083125,0.30625,0.07840000372,-10.54479976,1.009400001,-0.9589014040268676,0.2837394885371121,0.7693339709828786,-0.6388468056519617
731,-0.6439277529999999,-0.004985741805,0.2617736459,0.3481993079,-0.10290000199999999,0.083125,0.30625,0.07840000372,-10.54479976,1.009400001,-0.9651772292626801,0.2615968579949226,0.7838847332197931,-0.6209063737995719
732,-0.6416266561,-0.0003835186071,0.3239934444,0.49678698179999997,-0.063349998,0.09694999933000001,0.30414998530000004,0.048999998899999994,-10.02540002,0.882000035,-0.970941817426052,0.23931566428755766,0.7980172272802394,-0.6026346363792565
733,-0.6377914548,0.004602223169,0.43619045619999997,0.622187674,-0.025024999080000002,0.09275000333999998,0.139824996,0.303799995,-9.456999742999999,-0.01960000093,-0.9761921151179934,0.21690770936381729,0.8117239122946609,-0.584041342893677
734,-0.6377914548,0.004602223169,0.43619045619999997,0.622187674,-0.025024999080000002,0.09275000333999998,0.139824996,0.303799995,-9.456999742999999,-0.01960000093,-0.9809253413499562,0.19438486231564364,0.8249974745983024,-0.5651364144225918
735,-0.6228342056,0.0164912995,0.8590239881999999,0.7602286934999999,-0.025024999080000002,0.09275000333999998,0.139824996,0.303799995,-9.456999742999999,-0.01960000093,-0.9851389890168738,0.17175905309127631,0.8378308316336582,-0.5459299383291345
736,-0.6205331087,0.01955944858,0.9005163908,0.847679317,-0.025024999080000002,0.07875,0.127050004,0.17639999239999998,-10.22139983,-0.18619999399999998,-0.9888308262251285,0.1490422661761747,0.850217135729614,-0.5264321628773562
737,-0.6170814633,0.02377815358,0.8426414728,0.8440434337,-0.025024999080000002,0.07875,0.127050004,0.17639999239999998,-10.22139983,-0.18619999399999998,-0.991998897474747,0.12624653424504895,0.8621497777552503,-0.5066534917639199
