,leftJointPosition,rightJointPosition,leftJointVelocity,rightJointVelocity,imuGyroX,imuGyroY,imuGyroZ,imuAccX,imuAccY,imuAccZ,leftGaitPhaseX,leftGaitPhaseY,rightGaitPhaseX,rightGaitPhaseY
207,0.1718163341,-0.39310657979999997,0.5382268429,1.1027131079999999,0.137900002,-0.1296749973,0.6016500187,0.6369999766,-9.300200009,-0.2155999988,1.0,-2.4492935982947064e-16,-0.9952179661709025,-0.09767906536537092
208,0.1710492969,-0.3839021325,0.35464814310000004,1.3002293109999998,0.137900002,-0.1296749973,0.6016500187,0.6369999766,-9.300200009,-0.2155999988,1.0,0.0,-0.992859281805935,-0.11929143528268536
209,0.16951522230000002,-0.37239655850000003,0.178018868,1.569349647,0.17849999670000002,-0.16169999599999998,0.49279999729999996,1.038799988,-8.575,-0.8036000222,0.9997231228115485,0.02353035732676978,-0.9900313146326384,-0.14084742115768303
210,0.1698987484,-0.3570558131,0.1540060341,1.874181867,0.17849999670000002,-0.16169999599999998,0.49279999729999996,1.038799988,-8.575,-0.8036000222,0.9988926445681491,0.047047684615179775,-0.9867354013121098,-0.16233683438280302
211,0.168748185,-0.3478513658,0.053787272420000004,1.97032094,0.1998500013,-0.207549994,0.45115001200000004,0.8036000222,-7.810599911000001,-1.567999965,0.9975090251507638,0.07053895904231096,-0.9829730996839018,-0.18374951781657015
212,0.1679811478,-0.3336611986,-0.009187873453000001,2.0880575180000003,0.1998500013,-0.207549994,0.45115001200000004,0.8036000222,-7.810599911000001,-1.567999965,0.9955730307447012,0.09399117221213028,-0.9787461880296963,-0.20507535058445805
213,0.17066578570000002,-0.3233061731,0.131199494,2.068719387,0.175350008,-0.2129750013,0.3316250134,-0.45080000090000005,-7.310799921,-1.675800037,0.993085733415337,0.11739133735894691,-0.9740566642327867,-0.22630425286259245
214,0.1698987484,-0.314868778,0.06715970486,1.968808889,0.175350008,-0.2129750013,0.3316250134,-0.45080000090000005,-7.310799921,-1.675800037,0.9900485105144543,0.14072649653889052,-0.9689067448337617,-0.2474261906420654
215,0.1691317111,-0.30643135309999997,0.006385029294,1.797048211,0.09099999666000001,-0.2023000073,0.1384249973,-2.567599946,-8.339800107,-1.362199986,0.986463043917528,0.16398372780542952,-0.9632988639828406,-0.26843118047158526
216,0.1702822596,-0.2995280325,0.06403078139,1.785429001,0.09099999666000001,-0.2023000073,0.1384249973,-2.567599946,-8.339800107,-1.362199986,0.9823313190923794,0.18715015236495539,-0.9572356722893518,-0.2893092941762375
217,0.1698987484,-0.2922411859,0.03517061472,1.695702314,-0.076474998,-0.09974999666,-0.06422500133999999,-4.782400054,-10.60360017,0.5683999836,0.9776556239997144,0.21021294170847107,-0.9507200355689025,-0.3100506635501119
218,0.16951522230000002,-0.2868719101,0.008085826412,1.535717249,-0.076474998,-0.09974999666,-0.06422500133999999,-4.782400054,-10.60360017,0.5683999836,0.9724385478261558,0.2331593247154341,-0.9437550334888274,-0.33064548502059155
219,0.1683646739,-0.2861048877,-0.05864571407000001,1.167906761,-0.306950016,0.05495000183999999,-0.2819250107,-4.909799874,-13.78859947,3.15559997,0.9666829795504693,0.25597659472582024,-0.9363439581125603,-0.35108402428208546
220,0.1691317111,-0.2872554362,-0.005179474129999999,0.7860916256999999,-0.306950016,0.05495000183999999,-0.2819250107,-4.909799874,-13.78859947,3.15559997,0.9603921063437793,0.27865211657649214,-0.9284903123436125,-0.37135662089703064
221,0.1668305993,-0.28994005920000004,-0.1274489164,0.43154653909999996,-0.5545750093,0.1520749927,-0.2285500073,-3.82199986,-16.26799967,4.664800107,0.9535694118046583,0.3011733335979766,-0.9201978082699008,-0.39145369286196663
222,0.1633789241,-0.29492580890000003,-0.2816065252,0.05742032826,-0.5545750093,0.1520749927,-0.2285500073,-3.82199986,-16.26799967,4.664800107,0.9462186740300697,0.32352777456777476,-0.911470365409196,-0.4113657411365544
223,0.1599272639,-0.29914450649999996,-0.3877652586,-0.1854252964,-0.5246499920000001,0.271600008,0.04882499933,-2.861599958,-13.94539979,3.332000035,0.9383439635232295,0.3457030606163563,-0.9023121088565351,-0.43108335413336524
224,0.1587767005,-0.3041302562,-0.3474000096,-0.4063447118,-0.5246499920000001,0.271600008,0.04882499933,-2.861599958,-13.94539979,3.332000035,0.929949640939548,0.36768691208201276,-0.8927273673344598,-0.4505972121663475
225,0.1557085514,-0.30719840530000003,-0.4246009886,-0.46205714340000004,-0.372050004,0.3130749893,0.121450001,-0.4704000041,-10.97600005,0.009800000465,0.9210403546718968,0.38946715531077397,-0.8827206711470138,-0.46989809185584647
226,0.1526404023,-0.30643135309999997,-0.46926003689999995,-0.2865837216,-0.372050004,0.3130749893,0.121450001,-0.4704000041,-10.97600005,0.009800000465,0.9116210382765418,0.4110317293976218,-0.8722967500384563,-0.48897687048811095
227,0.1468876302,-0.30643135309999997,-0.6495996714,-0.2030605972,-0.1288000023,0.2896249866,-0.06632499933,1.773799944,-9.035599911,-1.097600034,0.9016969077411644,0.4323686928652698,-0.8614605309577135,-0.5078245303272131
228,0.13768318300000001,-0.3060478568,-0.9750532507999999,-0.1301715523,-0.1288000023,0.2896249866,-0.06632499933,1.773799944,-9.035599911,-1.097600034,0.8912734585964855,0.4534662302768077,-0.8502171357296141,-0.5264321628773558
229,0.1284787357,-0.3052808046,-1.2204995159999998,-0.045873422180000005,0.07174999833,0.2416750073,-0.1228499997,1.038799988,-10.87800014,-2.0384000419999997,0.8803564628730913,0.4743126587785522,-0.8385718786340215,-0.5447909730935416
230,0.1169731766,-0.3029797077,-1.52170074,0.08458834887,0.07174999833,0.2416750073,-0.1228499997,1.038799988,-10.87800014,-2.0384000419999997,0.8689519659051463,0.4948964345694777,-0.8265302638939949,-0.562892283538621
231,0.1066181734,-0.2995280325,-1.675779939,0.2557588518,0.1743000007,0.188300004,0.10009999630000001,-1.714999971,-11.59339969,-3.439800107,0.8570662829827631,0.5152061592936465,-0.8140979830741751,-0.5807275384847528
232,0.09511261433,-0.292624712,-1.8224853280000002,0.532140851,0.1743000007,0.188300004,0.10009999630000001,-1.714999971,-11.59339969,-3.439800107,0.844705995854882,0.5352305863520993,-0.801280912390623,-0.5982883079573349
233,0.08168946207000001,-0.2876389623,-2.040528536,0.6479574442,0.19775000329999998,0.103950001,0.126699996,-1.5190000119999998,-12.40680032,-3.498599935,0.8318779490846002,0.5549586271307072,-0.7880851099333758,-0.615566291719502
234,0.06864982842999999,-0.2795850635,-2.187543392,0.8887246847,0.19775000329999998,-0.01347499967,0.06702499866,-2.714600098,-12.29899995,-3.077200103,0.8185892462589638,0.5743793571405413,-0.7745168128030483,-0.6325533231952922
235,0.05177501217,-0.2680795193,-2.26405406,1.149527669,0.10482499599999999,-0.01347499967,0.06702499866,-2.714600098,-12.29899995,-3.077200103,0.8048472460553258,0.5934820220673562,-0.7605824341628117,-0.6492413733296517
236,0.04448815808,-0.2630937696,-2.295678139,1.237709165,0.10482499599999999,-0.01347499967,0.06702499866,-2.714600098,-12.29899995,-3.077200103,0.7906595581664462,0.6122560437268383,-0.7462885602071663,-0.6656225543834244
237,0.033366117630000004,-0.2561904192,-2.274129391,1.275097728,-0.01242499962,-0.1296749973,0.009450000376,-2.9105999110000003,-12.79879994,-1.842399937,0.776034039086592,0.6306910259223211,-0.7316419470489208,-0.6816891236615589
238,0.01955944858,-0.24852006140000002,-2.39599061,1.34051013,-0.01242499962,-0.1296749973,0.009450000376,-2.9105999110000003,-12.79879994,-1.842399937,0.7609787877609677,0.648776760201726,-0.7166495175258654,-0.6974334871727514
239,0.005752779078,-0.2412331998,-2.490904093,1.3721746209999999,-0.09782500267000001,-0.21087500329999997,0.017849999669999998,-3.038000023,-12.72039979,-0.2646000069,0.7455021411008906,0.6665032315105365,-0.7013183579286337,-0.7128482032188093
240,-0.01035500225,-0.23509690170000003,-2.6815445419999997,1.331292629,-0.09782500267000001,-0.21087500329999997,0.017849999669999998,-3.038000023,-12.72039979,-0.2646000069,0.7296126693671884,0.6838606237376779,-0.6856557146513155,-0.7279259859120251
241,-0.02684630267,-0.2285770923,-2.8517611030000003,1.32781899,-0.1352750003,-0.2812249947,0.1032500017,-2.547999907,-12.70080004,1.12700002,0.7133191714243803,0.7008393251512329,-0.6696689907663874,-0.7426597086189125
242,-0.04563871399,-0.2232078314,-3.1047120089999996,1.263269901,-0.1352750003,-0.2812249947,0.1032500017,-2.547999907,-12.70080004,1.12700002,0.6966306698682669,0.71742993372098,-0.6533657425255952,-0.7570424073286632
243,-0.06443112344,-0.2189891189,-3.2862999439999996,1.1552412509999999,-0.119174999,-0.3346000147,0.24622499469999998,-2.4010000469999997,-11.76979976,2.234400001,0.6795564060296294,0.7336232623248076,-0.6367536757884285,-0.7710672839447443
244,-0.08399057388,-0.2140033841,-3.4557540419999997,1.11868906,-0.119174999,-0.3346000147,0.24622499469999998,-2.4010000469999997,-11.76979976,2.234400001,0.6621058348568005,0.749410343836125,-0.6198406423798885,-0.7847277094980699
245,-0.10470058019999999,-0.2086341232,-3.640887737,1.105796456,-0.08924999832999998,-0.390075016,0.35717499729999996,-2.351999947,-11.27980022,1.9991999630000001,0.6442886196799466,0.7647824360894471,-0.6026346363792565,-0.7980172272802394
246,-0.1261776239,-0.20441541079999997,-3.8018729689999997,1.04030931,-0.08924999832999998,-0.390075016,0.35717499729999996,-2.351999947,-11.27980022,1.9991999630000001,0.626114626859956,0.779731026721406,-0.5851437903416343,-0.8109295558953474
247,-0.14918874199999999,-0.1994296759,-4.004942894,1.03357029,-0.045499998330000006,-0.3772999907,0.42664998530000003,-2.048200062,-10.33899949,1.6856000569999998,0.607593920324899,0.7942478378845108,-0.567376371454021,-0.8234585922289407
248,-0.1710492969,-0.194060415,-4.105398655,1.056485772,-0.045499998330000006,-0.3772999907,0.42664998530000003,-2.048200062,-10.33899949,1.6856000569999998,0.5887367559970824,0.8083248308310415,-0.54934077762777,-0.8355984143326967
249,-0.1978956014,-0.1883076429,-4.221199989,1.0306615829999999,-0.017849999669999998,-0.35279999729999995,0.4714500093,-1.8521999569999998,-9.074799991,0.9800000146,0.5695535761137887,0.8219542103645401,-0.5310455335292402,-0.8473432842234867
250,-0.2201396823,-0.1844724566,-4.2872867580000005,0.96269238,-0.017849999669999998,-0.35279999729999995,0.4714500093,-1.8521999569999998,-9.074799991,0.9800000146,0.5500550034448414,0.8351284291564355,-0.5124992865505528,-0.8586876505954737
251,-0.2373980135,-0.17987023289999998,-4.301205635,0.9452633858,0.01102499992,-0.3260249853,0.4222749853,-1.342599946,-8.18299979,0.6860000029000001,0.5302518354101989,0.8478401919254095,-0.49371080272232676,-0.8696261514439845
252,-0.2577244937,-0.174500972,-4.2426605219999995,0.9779335259999999,0.01102499992,-0.3260249853,0.4222749853,-1.342599946,-8.18299979,0.6860000029000001,0.5101550381008374,0.8600824594771905,-0.47468896257035004,-0.8801536165999005
253,-0.2577244937,-0.1718163341,-4.2426605219999995,0.915876627,0.042000001669999995,-0.2908500147,0.3795750093,-1.293599993,-7.947799897,0.5683999836,0.48977574020622844,0.8718484526025386,-0.4554427569181258,-0.8902650701733821
254,-0.3014456332,-0.1668305993,-4.107607365,0.8848521709,0.07384999633,-0.25882499929999997,0.2996000147,-1.068199974,-7.810599911000001,0.6272000298,0.4691252268517793,0.883131655831262,-0.43598128263728897,-0.8999557329057604
255,-0.3233061731,-0.1618448496,-3.961371899,0.8581297398000001,0.07384999633,-0.25882499929999997,0.2996000147,-1.068199974,-7.810599911000001,0.6272000298,0.44821493334964546,0.8939258210401873,-0.41631373834789864,-0.9092210244284925
256,-0.3374963701,-0.1595437378,-3.8752079010000005,0.7855830789,0.07384999633,-0.25882499929999997,0.2996000147,-1.068199974,-7.810599911000001,0.6272000298,0.427056438866376,0.904224970913085,-0.39644942007063433,-0.9180565654281101
257,-0.35437119009999996,-0.1545580029,-3.7438917160000003,0.8364644051000001,0.1154999983,-0.240625,0.2302999973,-1.097600034,-8.516200173,0.7153999895,0.4056614600108997,0.9140234022506345,-0.37639771683296275,-0.9264581797161342
258,-0.37009546159999995,-0.1503392905,-3.5757911210000004,0.8319114447,0.1154999983,-0.240625,0.2302999973,-1.097600034,-8.516200173,0.7153999895,0.3840418443464013,0.9233156891285962,-0.3561681062313365,-0.9344218962029858
259,-0.38735380770000005,-0.14612059300000002,-3.5471231939999996,0.8350884914,0.155049994,-0.21822500469999997,0.19074999329999998,-1.225,-9.016000164,0.8133999690000001,0.3622095638296826,0.9320966859024395,-0.33577014995153454,-0.9419439507749514
260,-0.40039342640000003,-0.1419018805,-3.3013274669999997,0.8483563065999999,0.155049994,-0.21822500469999997,0.19074999329999998,-1.225,-9.016000164,0.8133999690000001,0.3401767081816369,0.9403615300567678,-0.3152134892492523,-0.9490207880733232
261,-0.4149671197,-0.1388337314,-3.2000644210000004,0.7980005145,0.175350008,-0.1851499987,0.1779750013,-1.411199939,-9.319799757,1.283799973,0.317955478192515,0.948105644897956,-0.2945078403930918,-0.9556490631748651
262,-0.4276232421,-0.1369161457,-3.03191638,0.6795634627,0.175350008,-0.1851499987,0.1779750013,-1.411199939,-9.319799757,1.283799973,0.29555817896568415,0.9553247420885155,-0.2736629900720831,-0.961825643172819
263,-0.4406628907,-0.131930396,-2.9163963789999996,0.7597233056999999,0.16887499329999997,-0.153125,0.16625,-1.3818000259999998,-9.868599701,1.146599987,0.27299721310362113,0.9620148240217798,-0.25268879076993467,-0.9675476086576971
264,-0.45370250939999995,-0.1296292841,-2.81947422,0.6785953045,0.16887499329999997,-0.153125,0.16625,-1.3818000259999998,-9.868599701,1.146599987,0.2502850738399199,0.9681721860355966,-0.2315951561081751,-0.9728122550971642
265,-0.4655915797,-0.12732817230000001,-2.6977577210000003,0.6248841882,0.1592500067,-0.109375,0.157675004,-1.1662000270000001,-9.809800458,1.156400007,0.22743433812110656,0.9737934184638003,-0.21039205616040305,-0.9776170941143562
266,-0.4790147543,-0.1254105866,-2.69995594,0.5603044033,0.1592500067,-0.109375,0.157675004,-1.1662000270000001,-9.809800458,1.156400007,0.20445765964210016,0.9788754085243306,-0.18908951273984967,-0.9819598546640317
267,-0.48936975,-0.12272595609999999,-2.537805796,0.5428567529,0.1209249973,-0.07,0.1811250067,-1.391600046,-9.662800014,0.9114000216,0.18136776183917588,0.9834153420429478,-0.16769759466249426,-0.9858384841059988
268,-0.5004917979,-0.1192742884,-2.440565586,0.5746865272999999,0.1209249973,-0.07,0.1811250067,-1.391600046,-9.662800014,0.9114000216,0.15817743084430402,0.9874107050115952,-0.14622641298795505,-0.9892511491753123
269,-0.5142984389999999,-0.1177402139,-2.520436049,0.5045557022,0.1165499973,-0.025200001,0.1651999927,-0.950600028,-9.290400136,1.028999968,0.13489950840477488,0.9908592849805415,-0.12468611624041862,-0.9921962368487802
270,-0.5250369906,-0.1188907698,-2.433904171,0.31250604989999997,0.1165499973,-0.025200001,0.1651999927,-0.950600028,-9.290400136,1.028999968,0.11154688477202455,0.993759172283535,-0.10308688561185586,-0.9946723551073731
271,-0.5365425347999999,-0.1181237325,-2.3976953030000003,0.2745076418,0.08452499866,-0.008050000146,0.20352500199999998,-1.156400007,-9.868599701,0.9701999947,0.08813249156360181,0.996108761095289,-0.08143893014980717,-0.9966783335941716
272,-0.548048079,-0.1200413257,-2.374714851,0.09870184213,0.08452499866,-0.008050000146,0.20352500199999998,-1.156400007,-9.868599701,0.9701999947,0.06466929460222837,0.9979067503207152,-0.05975248193198814,-0.998213224167546
273,-0.5595536232,-0.1188907698,-2.358658075,0.11153624949999999,0.06649999917,0.03255000025,0.26442499399999997,-1.342599946,-9.672599887999999,1.068199974,0.04117028673591772,0.9991521443154102,-0.038037791230022155,-0.9992763013493021
274,-0.5691416264,-0.11850725109999999,-2.242357969,0.0973995626,0.06649999917,0.03255000025,0.26442499399999997,-1.342599946,-9.672599887999999,1.068199974,0.017648480643128704,0.9998442534369986,-0.01630512166456926,-0.9998670626675846
275,-0.5814142227,-0.11658965800000001,-2.167576313,0.168881163,0.04829999983,0.04952499866000001,0.26337500329999997,-1.028999968,-9.760799921,0.882000035,-0.005883098373062134,0.999982694427025,0.005435254645863509,-0.9999852288943746
276,-0.5921527147,-0.1169731766,-2.27957654,0.1158382148,0.04829999983,0.04952499866000001,0.26337500329999997,-1.028999968,-9.760799921,0.882000035,-0.02941141959777936,0.9995673906231852,0.027173061940110585,-0.9996307441774682
277,-0.6009736657,-0.1139050275,-2.150303125,0.25675773620000003,0.02800000042,0.06877500117,0.293300004,-1.077999994,-9.721599841,0.6566000164,-0.052923454120163166,0.9985985720017784,0.04889802567127581,-0.9988037760668765
278,-0.6117121577,-0.1119874343,-2.1534786219999997,0.29933711890000003,0.02800000042,0.06877500117,0.293300004,-1.077999994,-9.721599841,0.6566000164,-0.07640618204818711,0.9970767750503565,0.07059987736307226,-0.997504715435631
279,-0.6213001609000001,-0.1073852107,-2.095098257,0.45772123340000004,0.026949999330000002,0.08259999633,0.28367498399999996,-0.8525999755,-9.300200009,1.0192000209999998,-0.0998465997184792,0.9950028424706423,0.09226835946330243,-0.9957341762950345
280,-0.6301210522999999,-0.103933543,-2.006393194,0.522370398,0.026949999330000002,0.08259999633,0.28367498399999996,-0.8525999755,-9.300200009,1.0192000209999998,-0.12323172689715854,0.992377922711879,0.11389323019216993,-0.9934929955044441
281,-0.638558507,-0.1008653939,-1.9164675469999999,0.5476749539,0.005599999875000001,0.07525000334,0.2334500027,-0.9016000018000001,-9.555000234,0.4115999945,-0.14654861396769547,0.9892034693348721,0.13546426838314124,-0.9907822323757225
282,-0.6469959021,-0.09664668888,-1.852761626,0.621502161,0.005599999875000001,0.07525000334,0.2334500027,-0.9016000018000001,-9.555000234,0.4115999945,-0.16978434910181853,0.9854812402070736,0.1569712783140551,-0.9876031681725467
283,-0.6550498009000001,-0.09511261433,-1.786679029,0.5427932739,-0.014699999540000001,0.09117500066999999,0.2761499953,-0.8623999953,-9.613800061000001,0.1469999967,-0.1929260654094968,0.9812132965291546,0.1784040945262191,-0.9839573055048069
284,-0.6634871960000001,-0.09434557706,-1.77177453,0.4480383098,-0.014699999540000001,0.09117500066999999,0.2761499953,-0.8623999953,-9.613800061000001,0.1469999967,-0.21596094806403615,0.976402001693607,0.19975258662918396,-0.9798463676183886
285,-0.6684729457,-0.09434557706,-1.574204445,0.33995333310000003,-0.02537500083,0.09537499666000002,0.3134249973,-1.332800072,-10.28999953,0.4018000111,-0.23887624139834426,0.9710500199760052,0.22100666408896497,-0.9752722975806641
286,-0.6746092439,-0.0947290957,-1.479069591,0.23126868899999997,-0.02537500083,0.09537499666000002,0.3134249973,-1.332800072,-10.28999953,0.4018000111,-0.2616592559684406,0.9651603150596496,0.24215628099740244,-0.9702372573620882
287,-0.680745542,-0.0947290957,-1.4049823280000002,0.1753616482,-0.03815000117,0.1380749977,0.376425004,-1.028999968,-10.74079957,0.45080000090000005,-0.28429737558028695,0.9587361483944168,0.26319144082044776,-0.9647436268143246
288,-0.6872653365000001,-0.0947290957,-1.376375794,0.12745799119999998,-0.03815000117,0.1380749977,0.376425004,-1.028999968,-10.74079957,0.45080000090000005,-0.30677806427606374,0.9517810773907156,0.284102201123098,-0.9587940025453907
289,-0.6922510862000001,-0.09511261433,-1.2877649070000001,0.07250055671,-0.03815000117,0.150849998,0.42875,-0.7153999895,-10.45660031,0.49979999070000003,-0.32908887327601005,0.9442989534495557,0.3048786782687706,-0.9523911966923505
290,-0.6968532801,-0.09434557706,-1.192411542,0.09263843298,-0.03815000117,0.150849998,0.42875,-0.7153999895,-10.45660031,0.49979999070000003,-0.35121744787198955,0.9362939198298184,0.32551105209088027,-0.9455382355921352
291,-0.7006884812999999,-0.09396205842000001,-1.071922541,0.09625317155999999,-0.029575001,0.1583750033,0.4607749987,-0.7545999959,-10.34879994,0.6761999831000001,-0.37315153426896497,0.9277704093539076,0.3459895705344224,-0.9382383583511207
292,-0.7060577273,-0.09511261433,-1.064119339,0.011384418229999999,-0.029575001,0.1583750033,0.4607749987,-0.7545999959,-10.34879994,0.6761999831000001,-0.39487898637059116,0.9187331419530562,0.36630455426535313,-0.9304950153141396
293,-0.7095094323000001,-0.09357853979,-0.9636391401000001,0.08681482822,-0.02432499975,0.1690499973,0.5013749933,-0.8623999953,-10.29979999,0.7153999895,-0.41638777250516756,0.9091871220536424,0.3864464012456097,-0.9223118664336468
294,-0.7133446336,-0.09242798388000001,-0.906126678,0.1317371875,-0.02432499975,0.1690499973,0.5013749933,-0.8623999953,-10.29979999,0.7153999895,-0.4376659820882306,0.8991376358059675,0.40640559127158515,-0.9136927795398152
295,-0.7175633311,-0.09127742797,-0.8313980699,0.1505572647,-0.01890000075,0.17762499329999998,0.5194000053,-0.7055999695999999,-9.839199495,0.7938000023,-0.45870183221809074,0.8885902481570268,0.42617269047392714,-0.9046418285123755
296,-0.719864428,-0.08820927888,-0.7823081612999999,0.2802765965,-0.01890000075,0.17762499329999998,0.5194000053,-0.7055999695999999,-9.839199495,0.7938000023,-0.4794836742006663,0.8775507997688962,0.44573835577653853,-0.8951632913550622
297,-0.7213984728,-0.08590816706,-0.6563595533,0.3225636184,-0.01890000075,0.1786750007,0.499100008,-0.7447999761,-9.319799757,0.2841999918,-0.4999999999999998,0.8660254037844388,0.46509333931264707,-0.8852616481735843
298,-0.7233160734,-0.08590816706,-0.5811353922,0.2404456735,-0.01890000075,0.1786750007,0.499100008,-0.7447999761,-9.319799757,0.2841999918,-0.5202394486108821,0.8540204424421264,0.48422849279589053,-0.874941579058065
299,-0.7248501778,-0.08705872297,-0.5038974285,0.11553007359999999,-0.030625,0.17114999530000002,0.4693499947,-0.38220000789999997,-9.65300014,0.19599999559999998,-0.5401908123500583,0.8415425635418473,0.503134771844321,-0.8642079618709626
300,-0.727534771,-0.08859279752,-0.5029827952,0.004458963871,-0.030625,0.17114999530000002,0.4693499947,-0.38220000789999997,-9.65300014,0.19599999559999998,-0.5598430430625332,0.8285986767636566,0.5218032402553067,-0.8530658699415085
301,-0.7267677784000001,-0.08859279752,-0.3317070603,-0.0028122179210000003,-0.04987499833,0.1734249973,0.537599988,-0.7742000356000001,-9.466800201,0.4410000175,-0.5791852582395335,0.815195949841512,0.540225074229298,-0.8415205696677589
302,-0.727534771,-0.08820927888,-0.292444557,0.01086472906,-0.04987499833,0.1734249973,0.537599988,-0.7742000356000001,-9.466800201,0.4410000175,-0.5982067470447456,0.8013418045941093,0.5583915665404685,-0.8295775180273881
303,-0.7256172299,-0.08629168570000001,-0.135272339,0.1057729423,-0.06159999967,0.17762499329999998,0.5152000093,-0.6075999901,-8.819999766,0.6761999831000001,-0.616896976245489,0.7870439128150173,0.5762941306522497,-0.8172423599984082
304,-0.7256172299,-0.08590816706,-0.10480675099999999,0.10675589740000001,-0.06159999967,0.17762499329999998,0.5152000093,-0.6075999901,-8.819999766,0.6761999831000001,-0.6352455960455384,0.772310192024389,0.5939243047758315,-0.8045209258910206
305,-0.7244666219,-0.08629168570000001,-0.01417554729,0.06704896687999999,-0.0530249995,0.1872499967,0.4649749947,-0.1372000042,-9.613800061000001,0.7055999695999999,-0.6532424458163694,0.7571488010846004,0.611273755869686,-0.7914192285918806
306,-0.7236996293000001,-0.08629168570000001,0.0387509577,0.05196585506,-0.0530249995,0.1872499967,0.4649749947,-0.1372000042,-9.613800061000001,0.7055999695999999,-0.6708775597236504,0.7415681356822446,0.6283342835782548,-0.777943460722051
307,-0.7233160734,-0.08590816706,0.0617323257,0.060845248399999996,-0.06370000183999999,0.19040000199999998,0.5194000053,-0.6174000099,-9.604000187,0.8036000222,-0.6881411722458688,0.7255768236789827,0.6450978241079041,-0.7640999917100167
308,-0.7233160734,-0.08552464843,0.057928986849999996,0.058770246799999995,-0.06370000183999999,0.19040000199999998,0.5194000053,-0.6174000099,-9.604000187,0.8036000222,-0.7050237235820289,0.7091837203338293,0.6615564540383463,-0.7498953647811203
309,-0.7217820287000001,-0.08437409252,0.1206302196,0.10756442699999999,-0.058449998499999996,0.1979250073,0.5087249947,-0.2744000085,-9.378600168,0.7644000157999999,-0.7215158649454345,0.6923979033995131,0.6777023940677034,-0.735336293864857
310,-0.719864428,-0.08322353661000001,0.1947253942,0.1387880743,-0.058449998499999996,0.1979250073,0.5087249947,-0.2744000085,-9.378600168,0.7644000157999999,-0.7376084637406222,0.6752286680956306,0.6935280126894579,-0.7204296604214815
311,-0.7194809318000001,-0.07938835025,0.1607575566,0.3066170216,-0.06264999866,0.205274992,0.486325016,-0.2057999972,-9.074799991,0.9800000146,-0.7532926086205728,0.6576855219613797,0.7090258297995435,-0.7051825101894323
312,-0.7171797752,-0.07516964525,0.2300582528,0.45466840270000003,-0.06264999866,0.205274992,0.486325016,-0.2057999972,-9.074799991,0.9800000146,-0.7685596144214109,0.6397781795907175,0.7241885202318785,-0.6896020498551046
313,-0.7152621746,-0.07095094025,0.2682010233,0.5839366317,-0.050925001500000004,0.2171749973,0.4042500067,0.1666000091,-8.026200056,0.9800000146,-0.7834010269718525,0.6215165572528594,0.7390089172206586,-0.6736956436465578
314,-0.7133446336,-0.06634871662000001,0.31016477940000003,0.6723092198,-0.050925001500000004,0.2171749973,0.4042500067,0.1666000091,-8.026200056,0.9800000146,-0.7978086277747383,0.6029107674011049,0.7534800157877918,-0.6574708098527485
315,-0.7129610777,-0.05944538489,0.23453214760000002,0.7701154351,-0.06370000183999999,0.2106999993,0.2719499993,0.303799995,-8.14379971,0.6075999901,-0.8117744385580624,0.5839711130730205,0.7675949760538496,-0.6409352172699594
316,-0.7121940255,-0.05484316126,0.2354595661,0.8500416875,-0.06370000183999999,0.2106999993,0.2719499993,0.303799995,-8.14379971,0.6075999901,-0.8252907256929772,0.5647080821850871,0.7813471264709959,-0.6240966815770755
317,-0.7125775814,-0.04947390035,0.1423179209,0.916549325,-0.073325001,0.2148999953,0.2526999927,-0.07840000372,-8.594599748,0.9016000018000001,-0.8383500044763224,0.5451323417249707,0.7947299669763461,-0.6069631616414425
318,-0.7095094323000001,-0.04602223262,0.2775330245,0.8708811402,-0.073325001,0.2148999953,0.2526999927,-0.07840000372,-8.594599748,0.9016000018000001,-0.8509450432753122,0.5252547318446329,0.8077371720642704,-0.5895427557570487
319,-0.707975328,-0.04333760217,0.2986803353,0.7867385148999999,-0.071225003,0.2351999927,0.2526999927,0.048999998899999994,-8.829800224,1.273999953,-0.8630688675320841,0.5050862598575474,0.8203625937761979,-0.5718436978167976
320,-0.7041401863,-0.039502415810000004,0.42652571200000006,0.7739790081999999,-0.071225003,0.2351999927,0.2526999927,0.048999998899999994,-8.829800224,1.273999953,-0.8747147636258916,0.4846380941433519,0.8326002646064948,-0.5538743534206967
321,-0.6980038881,-0.03758482262,0.639131844,0.6593151093,-0.07017500401,0.2597000027,0.17587500329999997,-0.009800000465,-8.584799874,0.9800000146,-0.8858762825907996,0.463921557963311,0.8444444003230549,-0.5356432159217889
322,-0.6922510862000001,-0.034133154900000004,0.7787137628,0.6641218662,-0.07017500401,0.2597000027,0.17587500329999997,-0.009800000465,-8.584799874,0.9800000146,-0.8965472436868284,0.44294812319000837,0.8558894027012622,-0.5171589024117023
323,-0.6864982843,-0.030681489039999996,0.8763714432999999,0.6744164824,-0.0573999995,0.2917250013,0.04357500017,0.6369999766,-9.094399738,1.12700002,-0.9067217378225655,0.42172940395474784,0.8669298621700376,-0.49843014964771104
324,-0.6818960905,-0.02838037722,0.8845231533,0.6154927611,-0.0573999995,0.2917250013,0.04357500017,0.6369999766,-9.094399738,1.12700002,-0.9163941308273502,0.4002771502161787,0.8775605603687129,-0.4794658099232423
325,-0.6757597923,-0.02761333995,0.9045568109000001,0.5003691316,-0.04024999917,0.3333749866,0.006124999896,0.303799995,-9.388400042,1.24460004,-0.925559066571221,0.37860324125370354,0.8877764726135321,-0.4602748468837663
326,-0.6703905463000001,-0.02722982131,0.9341495633,0.3906601965,-0.04024999917,0.3333749866,0.006124999896,0.303799995,-9.388400042,1.24460004,-0.934211469930896,0.35671967908927404,0.8975727702726074,-0.44086633129006014
327,-0.6650212407,-0.02569574676,0.9483178258,0.3674475551,-0.027475000919999996,0.3664500093,-0.0001749999961,0.08819999619999999,-9.682399762000001,1.303400013,-0.9423465496001435,0.3346385818412219,0.9069448230482119,-0.4212494367308373
328,-0.6592684984,-0.02377815358,0.9944420456999999,0.37634462119999995,-0.027475000919999996,0.3664500093,-0.0001749999961,0.08819999619999999,-9.682399762000001,1.303400013,-0.9499598007429908,0.31237217701379416,0.9158882011653231,-0.40143343528678416
329,-0.6562003493,-0.01994296722,0.8880345821,0.47902780770000003,-0.02537500083,0.4122999907,0.06912500082999999,0.24500000370000002,-9.917599654,1.6561999980000002,-0.9570470074882946,0.28993279472612277,0.9243986774653952,-0.38142769314803077
330,-0.6538992524,-0.01725833677,0.7693437934,0.4828477204,-0.02537500083,0.4122999907,0.06912500082999999,0.24500000370000002,-9.917599654,1.6561999980000002,-0.9636042452643001,0.2673328608843636,0.9324722294043558,-0.361241666187153
331,-0.6500640512,-0.013423151340000002,0.7604142426999999,0.5505049229,-0.0029750000309999997,0.47529999729999994,-0.029049999419999997,0.17639999239999998,-8.986599958,1.420999959,-0.9696278829718882,0.24458489030079977,0.940105040953895,-0.3408848954897757
332,-0.6466123462,-0.009587964974,0.7319797277,0.6064087749,-0.0029750000309999997,0.47529999729999994,-0.029049999419999997,0.17639999239999998,-8.986599958,1.420999959,-0.9751145849953133,0.22170147976370796,0.9472935044051409,-0.3203670028449049
333,-0.6439277529999999,-0.004985741805,0.6734679937000001,0.6543420553,-0.019949999750000003,0.5148500013,-0.08137500167,-0.6467999965,-9.045399785,1.6856000569999998,-0.9800613130493154,0.19869530106183114,0.9540342220738725,-0.29969768619710946
334,-0.6427772045,-0.003451667493,0.5545617342,0.5551124811,-0.019949999750000003,0.5148500013,-0.08137500167,-0.6467999965,-9.045399785,1.6856000569999998,-0.9844653278615834,0.17557909396732085,0.9603240079064604,-0.27888671506271606
335,-0.6374078989,0.0030681488569999998,0.6629700661,0.7058328986,0.00875,0.574525032,-0.1538249993,-1.107399981,-10.30960045,1.401400065,-0.9883241906896385,0.15236565918103392,0.9661598889857822,-0.2579439259121661
336,-0.6339562535000001,0.004602223169,0.7068881392,0.6421189307999999,0.00875,0.574525032,-0.1538249993,-1.107399981,-10.30960045,1.401400065,-0.9916357646713004,0.12906785124408537,0.9715391069363941,-0.23687921752073104
337,-0.6285870075,0.00651981635,0.8042405844,0.5739842653,0.06317499816000001,0.6322750187,-0.12407500269999999,-1.734600011,-10.89759989,0.4704000041,-0.994398216007982,0.10569857141959295,0.9764591192282992,-0.21570254628977872
338,-0.620916605,0.008820927702,1.00120008,0.5465620756,0.06317499816000001,0.6322750187,-0.12407500269999999,-1.734600011,-10.89759989,0.4704000041,-0.9966100149801647,0.08227076054854497,0.9809176003786952,-0.19442392154079782
339,-0.6147803068,0.01188907679,1.064725161,0.5638738871,0.1282749987,0.6076000214,-0.17202499870000001,-2.0089999819999997,-10.93680055,-0.2155999988,-0.9982699367944867,0.05879739188375166,0.984912443051131,-0.17305340078441875
340,-0.6063429117,0.014957225880000003,1.224505067,0.582074821,0.1282749987,0.6076000214,-0.17202499870000001,-2.0089999819999997,-10.93680055,-0.2155999988,-0.9993770622619782,0.03529146390585269,0.9884417590515571,-0.15160108496664387
341,-0.6017407178999999,0.015724262219999997,1.138163209,0.47929227350000003,0.214725008,0.6086499786,-0.28945001600000003,-2.528399867,-11.15240011,-0.2646000069,-0.9999307783070658,0.011765993125348085,0.9915038802207943,-0.13007711369456557
342,-0.5975219607,0.015340744519999998,1.062623262,0.3331139386,0.214725008,0.6086499786,-0.28945001600000003,-2.528399867,-11.15240011,-0.2646000069,-0.9999307783070658,-0.011765993125347839,0.9940973592230037,-0.10849166044378859
343,-0.5948373675,0.014957225880000003,0.9333189129999999,0.22650595010000002,0.293825016,0.6054999732999999,-0.2787750053,-2.3715999869999997,-12.17159984,-0.4704000041,-0.9993770622619782,-0.03529146390585244,0.9962209702297806,-0.0868549277498665
344,-0.5917692184000001,0.015340744519999998,0.8530067801000001,0.19333586100000003,0.293825016,0.6054999732999999,-0.2787750053,-2.3715999869999997,-12.17159984,-0.4704000041,-0.9982699367944867,-0.058797391883751854,0.9978737094995525,-0.06517714238598456
345,-0.5890845656,0.014957225880000003,0.7587099075,0.1334023476,0.3256750107,0.5755749893,-0.1623999953,-2.8714001239999996,-11.63260036,-0.4115999945,-0.9966100149801647,-0.08227076054854472,0.9990547958520045,-0.04346855052920048
346,-0.587166965,0.015340744519999998,0.6499937773,0.1251332313,0.3256750107,0.5755749893,-0.1623999953,-2.8714001239999996,-11.63260036,-0.4115999945,-0.994398216007982,-0.10569857141959314,0.9997636710373118,-0.021739412917504163
347,-0.5844823718,0.0164912995,0.6246958375,0.1653391123,0.375899992,0.5627999973,-0.1144499993,-2.940000117,-11.66200056,0.05880000051,-0.9916357646713003,-0.1290678512440856,1.0,-2.4492935982947064e-16
348,-0.5814142227,0.014957225880000003,0.6342743039000001,0.045857351270000006,0.375899992,0.5627999973,-0.1144499993,-2.940000117,-11.66200056,0.05880000051,-0.9883241906896386,-0.1523656591810337,1.0,0.0
349,-0.5798801184000001,0.014957225880000003,0.5566583871999999,0.0424217023,0.3386250067,0.5521249866,-0.006649999917,-3.675,-11.29939997,0.19599999559999998,-0.9844653278615835,-0.1755790939673202,0.9996790752964305,0.025332714313187926
350,-0.5756614207999999,0.01380666997,0.6371125579,-0.029306627810000003,0.3386250067,0.5521249866,-0.006649999917,-3.675,-11.29939997,0.19599999559999998,-0.9800613130493155,-0.19869530106183048,0.9987165071710528,0.05064916883871271
351,-0.5733603239,0.014573707250000002,0.6061888933,0.0104330508,0.2819250107,0.5425,0.0136499995,-3.684799874,-11.14259965,0.303799995,-0.9751145849953134,-0.22170147976370774,0.9971129134476474,0.07593311422524629
352,-0.5702921747999999,0.014573707250000002,0.6302221417,0.0054735559970000005,0.2819250107,0.5425,0.0136499995,-3.684799874,-11.14259965,0.303799995,-0.9696278829718883,-0.24458489030079955,0.9948693233918952,0.10116832198743217
353,-0.5691416264,0.01419018861,0.5270698667,0.0056862682099999996,0.19879999399999998,0.5435499907,0.02327500075,-3.939600098,-11.70120006,0.1666000091,-0.9636042452643002,-0.2673328608843634,0.991987177050743,0.1263385949221292
354,-0.5672240257,0.01188907679,0.49435088039999997,-0.10955361279999999,0.19879999399999998,0.5435499907,0.02327500075,-3.939600098,-11.70120006,0.1666000091,-0.9570470074882947,-0.28993279472612254,0.9884683243281114,0.15142777750457667
355,-0.5637723804,0.01188907679,0.5252335072,-0.067316778,0.093100003,0.5479249907,0.058449998499999996,-4.390400136,-12.11279943,-0.06860000212,-0.9499598007429909,-0.31237217701379394,0.9843150237975341,0.17641976625780845
356,-0.562238276,0.009204446338,0.4946530759,-0.1948219985,0.093100003,0.5479249907,0.058449998499999996,-4.390400136,-12.11279943,-0.06860000212,-0.9423465496001436,-0.3346385818412217,0.9795299412524945,0.20129852008866006
357,-0.5576360821999999,0.004602223169,0.6148875356,-0.39150235060000005,0.007699999958,0.5425,0.12564999699999999,-4.654999942,-12.11279943,-0.303799995,-0.9342114699308959,-0.35671967908927427,0.974116147995387,0.2260480705837348
358,-0.553417325,0.002301111585,0.6725514531,-0.4081409574,0.007699999958,0.5425,0.12564999699999999,-4.654999942,-12.11279943,-0.303799995,-0.9255590665712211,-0.3786032412537033,0.9680771188662043,0.25065253225872053
359,-0.5495821834000001,0.001150555792,0.6964049339,-0.3624197841,-0.0530249995,0.5393499947,0.1342250013,-4.263000023,-11.16220057,-0.235200002,-0.9163941308273502,-0.40027715021617893,0.9614167300122125,0.2750961127544781
360,-0.5438293814999999,-0.0015340744279999999,0.8133026958,-0.4096722901,-0.0530249995,0.5393499947,0.1342250013,-4.263000023,-11.16220057,-0.235200002,-0.9067217378225654,-0.42172940395474806,0.9541392564000488,0.29936312297335793
361,-0.5392271876,-0.003835186129,0.8444175124,-0.4363218248,-0.05617500067000001,0.5138000107,0.114975003,-3.52800014,-9.192400229,-0.01960000093,-0.8965472436868287,-0.44294812319000776,0.9462493690718369,0.32343798714923805
362,-0.5338578820000001,-0.008820927702,0.9140596390000001,-0.5935776234000001,-0.05617500067000001,0.5138000107,0.114975003,-3.52800014,-9.192400229,-0.01960000093,-0.8858762825907999,-0.46392155796331047,0.9377521321470804,0.3473052528448203
363,-0.5292556882,-0.015724262219999997,0.9143782854000001,-0.8076584339,-0.07875,0.484924984,-0.1069250023,-2.744000012,-9.447199869,-1.4895999519999998,-0.8747147636258918,-0.48463809414335174,0.9286529995722622,0.37094960086976775
364,-0.5246534347999999,-0.02569574676,0.9144910573999999,-1.120652914,-0.07875,0.484924984,-0.1069250023,-2.744000012,-9.447199869,-1.4895999519999998,-0.8630688675320842,-0.5050862598575472,0.9189578116202306,0.39435585511331855
365,-0.5185171366,-0.035667229439999996,0.9928454161,-1.352334023,-0.1043000007,0.4263000107,0.02432499975,-3.6456000860000004,-10.78979952,-1.6267999380000002,-0.8509450432753123,-0.5252547318446327,0.9086727911416249,0.41750899228506305
366,-0.5135313869,-0.04909038171,0.9930266142,-1.700917959,-0.1043000007,0.4263000107,0.02432499975,-3.6456000860000004,-10.78979952,-1.6267999380000002,-0.8383500044763226,-0.5451323417249705,0.8978045395707417,0.44039415155763423
367,-0.5077786446,-0.06289704889,1.035662055,-1.98254931,-0.1053499997,0.429450016,0.164150002,-3.488800061,-10.3977999,-1.5190000119999998,-0.8252907256929773,-0.5647080821850868,0.8863600326884082,0.46299664410512076
368,-0.5027928948,-0.07555316389,1.0310572390000001,-2.1243567469999998,-0.1053499997,0.429450016,0.164150002,-3.488800061,-10.3977999,-1.5190000119999998,-0.8117744385580625,-0.5839711130730203,0.8743466161445821,0.48530196253108104
369,-0.49780714509999996,-0.08820927888,1.028901815,-2.222152233,-0.09887500167000002,0.419824996,0.21,-2.9791999039999997,-10.15280013,-1.283799973,-0.797808627774738,-0.602910767401105,0.8617720007435496,0.5072957901801073
370,-0.492054373,-0.10316650570000001,1.065692425,-2.422127962,-0.09887500167000002,0.419824996,0.21,-2.9791999039999997,-10.15280013,-1.283799973,-0.7834010269718523,-0.6215165572528596,0.8486442574947509,0.5289640103269625
371,-0.48668512700000005,-0.1158226207,1.070511699,-2.451892853,-0.1032500017,0.38027499200000003,0.20684999469999998,-2.626400065,-9.417800247999999,-0.9995999812999999,-0.768559614421411,-0.6397781795907173,0.8349718124324074,0.5502927152373914
372,-0.48169937729999995,-0.1280952096,1.06245327,-2.4572677609999998,-0.1032500017,0.38027499200000003,0.20684999469999998,-2.626400065,-9.417800247999999,-0.9995999812999999,-0.7532926086205727,-0.65768552196138,0.8207634412072763,0.5712682150947923
373,-0.4763301015,-0.1430524439,1.075923204,-2.466531515,-0.1074499977,0.310975008,0.1417500067,-1.783599964,-8.996399832,-1.293599993,-0.7376084637406226,-0.6752286680956301,0.8060282634540051,0.5918770467870171
374,-0.4732619524,-0.1541744769,0.9529313445,-2.4088809490000003,-0.1074499977,0.310975008,0.1417500067,-1.783599964,-8.996399832,-1.293599993,-0.721515864945435,-0.6923979033995127,0.7907757369376986,0.6121059825476628
375,-0.4667421579,-0.1664470732,0.9749649167000001,-2.3001120090000002,-0.124599998,0.21385000469999998,0.1053499997,-1.9893999430000002,-9.133599817999999,-1.470000058,-0.7050237235820291,-0.7091837203338289,0.7750156514834587,0.631942038446304
376,-0.4621399343,-0.174500972,1.004264355,-2.233804464,-0.124599998,0.21385000469999998,0.1053499997,-1.9893999430000002,-9.133599817999999,-1.470000058,-0.688141172245869,-0.7255768236789825,0.758758122692791,0.6513724827222223
377,-0.4540860355,-0.185623005,1.172622681,-2.231718779,-0.1352750003,0.153125,0.075600003,-1.881600016,-8.633799827,-1.8521999569999998,-0.6708775597236507,-0.7415681356822443,0.7420135854509109,0.6703848439562785
378,-0.44871675969999997,-0.194060415,1.161082387,-2.091309547,-0.1352750003,0.153125,0.075600003,-1.881600016,-8.633799827,-1.8521999569999998,-0.6532424458163697,-0.7571488010846001,0.72479278722912,0.6889669190756865
379,-0.44258046149999997,-0.2040318996,1.186857581,-2.063135624,-0.1650250053,0.07735000134,0.01050000042,-1.8228000430000002,-8.418200266,-2.126599929,-0.6352455960455383,-0.7723101920243891,0.7071067811865476,0.7071067811865475
380,-0.43644416329999997,-0.21285282079999998,1.198131442,-1.987224221,-0.1650250053,0.07735000134,0.01050000042,-1.8228000430000002,-8.418200266,-2.126599929,-0.6168969762454892,-0.7870439128150172,0.6889669190756866,0.7247927872291199
381,-0.4306913912,-0.2232078314,1.164981246,-2.009311199,-0.19285000800000002,0.01644999996,-0.025900000330000002,-1.93059997,-8.379000187,-2.028600022,-0.598206747044746,-0.8013418045941091,0.6703848439562786,0.7420135854509107
382,-0.4211034179,-0.2331793159,1.3596037630000002,-2.010272026,-0.19285000800000002,0.01644999996,-0.025900000330000002,-1.93059997,-8.379000187,-2.028600022,-0.579185258239533,-0.8151959498415122,0.6513724827222224,0.7587581226927907
383,-0.4153506458,-0.24200023710000002,1.317903876,-1.947727084,-0.2217250013,-0.037975001339999995,-0.058974998,-1.871799996,-8.486799967,-2.057999936,-0.5598430430625331,-0.8285986767636566,0.6319420384463041,0.7750156514834586
384,-0.4088308215,-0.2523552477,1.310682654,-1.97817874,-0.2217250013,-0.037975001339999995,-0.058974998,-1.871799996,-8.486799967,-2.057999936,-0.5401908123500585,-0.8415425635418472,0.612105982547663,0.7907757369376984
385,-0.4011604488,-0.261559695,1.293679357,-1.939365029,-0.23239999530000002,-0.08172500133999999,-0.06422500133999999,-1.8326000630000001,-8.96700021,-1.558199945,-0.5202394486108824,-0.8540204424421263,0.5918770467870172,0.806028263454005
386,-0.3957912028,-0.2707641423,1.301978469,-1.908522129,-0.23239999530000002,-0.08172500133999999,-0.06422500133999999,-1.8326000630000001,-8.96700021,-1.558199945,-0.5000000000000004,-0.8660254037844384,0.5712682150947924,0.8207634412072763
387,-0.3885043561,-0.2799685895,1.3392182590000001,-1.889492989,-0.2280249953,-0.117949996,-0.03430000067,-1.871799996,-9.104200196,-1.372000006,-0.479483674200667,-0.8775507997688958,0.5502927152373914,0.8349718124324074
388,-0.3831350803,-0.2884059846,1.284010768,-1.836282134,-0.2280249953,-0.117949996,-0.03430000067,-1.871799996,-9.104200196,-1.372000006,-0.4587018322180906,-0.8885902481570269,0.5289640103269625,0.8486442574947509
389,-0.3777658343,-0.2968434095,1.2217254640000001,-1.793561935,-0.22050000670000003,-0.1457749987,-0.01732500017,-1.8521999569999998,-9.016000164,-1.12700002,-0.4376659820882308,-0.8991376358059674,0.5072957901801074,0.8617720007435496
390,-0.370862484,-0.3041302562,1.2723914379999999,-1.7017037869999998,-0.22050000670000003,-0.1457749987,-0.01732500017,-1.8521999569999998,-9.016000164,-1.12700002,-0.4163877725051682,-0.909187122053642,0.48530196253108127,0.874346616144582
391,-0.3666437864,-0.3106500804,1.168146372,-1.5874307159999999,-0.20457499269999999,-0.1520749927,-0.02047499925,-1.558199945,-9.11400007,-1.028999968,-0.39487898637059116,-0.9187331419530562,0.4629966441051208,0.8863600326884082
392,-0.3620415628,-0.3183204532,1.09973526,-1.573491573,-0.20457499269999999,-0.1520749927,-0.02047499925,-1.558199945,-9.11400007,-1.028999968,-0.3731515342689652,-0.9277704093539076,0.4403941515576343,0.8978045395707417
393,-0.3559052646,-0.3248402476,1.125862718,-1.433290362,-0.1897000027,-0.153125,-0.02800000042,-1.675800037,-8.976800084,-1.048600008,-0.3512174478719897,-0.9362939198298182,0.4175089922850632,0.9086727911416249
394,-0.3501524925,-0.3302095234,1.149509192,-1.336503863,-0.1897000027,-0.153125,-0.02800000042,-1.675800037,-8.976800084,-1.048600008,-0.32908887327600966,-0.9442989534495558,0.39435585511331855,0.9189578116202306
395,-0.3443997204,-0.3355787694,1.045883775,-1.1984629629999999,-0.1779750013,-0.151025002,-0.04829999983,-1.8228000430000002,-9.00620029,-1.097600034,-0.30677806427606374,-0.9517810773907156,0.37094960086976786,0.9286529995722621
396,-0.3405645192,-0.33903044460000004,1.087463975,-1.118895531,-0.1779750013,-0.151025002,-0.04829999983,-1.8228000430000002,-9.00620029,-1.097600034,-0.28429737558028717,-0.9587361483944168,0.3473052528448203,0.9377521321470804
397,-0.3351952732,-0.34324914219999997,1.085322022,-1.04735744,-0.16940000530000002,-0.148925004,-0.05670000017000001,-1.940399989,-9.035599911,-1.038799988,-0.26165925596844103,-0.9651603150596495,0.3234379871492382,0.9462493690718368
398,-0.3305930495,-0.34631729130000005,1.033400297,-0.9321621059999999,-0.16940000530000002,-0.148925004,-0.05670000017000001,-1.940399989,-9.035599911,-1.038799988,-0.23887624139834515,-0.9710500199760049,0.29936312297335815,0.9541392564000488
399,-0.3229226768,-0.3505360186,1.097421765,-0.91302526,-0.1756999993,-0.1286249983,-0.09205000401,-1.734600011,-9.202200103,-1.12700002,-0.21596094806403596,-0.9764020016936071,0.2750961127544782,0.9614167300122125
400,-0.3171698749,-0.35283711549999996,1.112423301,-0.8027171493,-0.1756999993,-0.1286249983,-0.09205000401,-1.734600011,-9.202200103,-1.12700002,-0.19292606540949706,-0.9812132965291545,0.25065253225872075,0.9680771188662043
401,-0.3114171028,-0.3547547162,1.11888814,-0.6835561395,-0.168349998,-0.114799999,-0.1134000003,-1.607200044,-8.957199752000001,-1.25440006,-0.169784349101819,-0.9854812402070735,0.22604807058373497,0.974116147995387
402,-0.3068148792,-0.35820639130000004,1.0614858870000001,-0.6806601286,-0.168349998,-0.114799999,-0.1134000003,-1.607200044,-8.957199752000001,-1.25440006,-0.14654861396769528,-0.9892034693348722,0.2012985200886601,0.9795299412524945
403,-0.3018291295,-0.36050748829999996,1.0262497659999998,-0.6241782904,-0.159775002,-0.11042499900000001,-0.1100749993,-1.597400025,-9.00620029,-0.9898000345,-0.12323172689715876,-0.992377922711879,0.17641976625780859,0.9843150237975341
404,-0.2945422828,-0.362808615,1.132264733,-0.5906966925,-0.159775002,-0.11042499900000001,-0.1100749993,-1.597400025,-9.00620029,-0.9898000345,-0.09984659971847966,-0.9950028424706422,0.1514277775045767,0.9884683243281114
405,-0.2891730368,-0.3647261858,1.1146292690000001,-0.544452548,-0.13090000029999999,-0.1020249987,-0.135800004,-1.4895999519999998,-8.535799921,-1.068199974,-0.07640618204818668,-0.9970767750503565,0.12633859492212934,0.991987177050743
406,-0.2841872871,-0.3666437864,1.080350995,-0.5059067607,-0.13090000029999999,-0.1020249987,-0.135800004,-1.4895999519999998,-8.535799921,-1.068199974,-0.052923454120162965,-0.9985985720017784,0.10116832198743221,0.9948693233918952
407,-0.2776674628,-0.3670273125,1.138118744,-0.3881911039,-0.1063999987,-0.11689999699999999,-0.138950001,-1.440599999,-8.937600005,-1.0878000140000001,-0.029411419597779383,-0.9995673906231852,0.07593311422524644,0.9971129134476474
408,-0.2711476684,-0.3674108386,1.188581347,-0.2977629304,-0.1063999987,-0.11689999699999999,-0.138950001,-1.440599999,-8.937600005,-1.0878000140000001,-0.005883098373061713,-0.999982694427025,0.05064916883871277,0.9987165071710528
409,-0.2653948665,-0.3666437864,1.182904601,-0.180456847,-0.071225003,-0.1200500023,-0.1496250033,-1.4504000190000002,-8.330000234,-1.2054000329999999,0.017648480643128902,-0.9998442534369986,0.025332714313187874,0.9996790752964305
410,-0.26040914649999997,-0.3670273125,1.140651107,-0.1621277034,-0.071225003,-0.1200500023,-0.1496250033,-1.4504000190000002,-8.330000234,-1.2054000329999999,0.041170286735916814,-0.9991521443154102,6.123233995736766e-17,1.0
411,-0.2550398707,-0.3647261858,1.119678378,-0.005803829059,-0.0530249995,-0.1520749927,-0.229599998,-1.009400001,-8.506399715,-1.577799985,0.06466929460222813,-0.9979067503207152,-0.02533271431318775,0.9996790752964305
412,-0.24813653530000002,-0.3631921113,1.193269968,0.08730812370999999,-0.0530249995,-0.1520749927,-0.229599998,-1.009400001,-8.506399715,-1.577799985,0.08813249156360135,-0.9961087610952891,-0.05064916883871264,0.9987165071710528
413,-0.2435343117,-0.36510971189999997,1.115131855,-0.0315919593,-0.04235000134,-0.17885000469999998,-0.2285500073,-1.313200033,-9.172799897,-1.6267999380000002,0.11154688477202387,-0.9937591722835352,-0.07593311422524611,0.9971129134476475
414,-0.2366309762,-0.36395916340000006,1.171491146,0.03231303766,-0.04235000134,-0.17885000469999998,-0.2285500073,-1.313200033,-9.172799897,-1.6267999380000002,0.13489950840477485,-0.9908592849805415,-0.1011683219874321,0.9948693233918952
415,-0.2285770923,-0.3631921113,1.217048407,0.06604665518,-0.030625,-0.194775002,-0.20510000469999998,-1.4504000190000002,-8.927800131,-1.470000058,0.15817743084430377,-0.9874107050115952,-0.126338594922129,0.991987177050743
416,-0.22282430530000003,-0.3631921113,1.259244204,0.04972983152,-0.030625,-0.194775002,-0.20510000469999998,-1.4504000190000002,-8.927800131,-1.470000058,0.1813677618391754,-0.9834153420429479,-0.15142777750457637,0.9884683243281115
417,-0.2166880071,-0.3616580367,1.252034664,0.10809637609999999,-0.01242499962,-0.21192499399999998,-0.223300004,-1.4504000190000002,-8.96700021,-1.293599993,0.20445765964210036,-0.9788754085243305,-0.17641976625780825,0.9843150237975342
418,-0.2097846717,-0.35974046590000003,1.2894580359999999,0.18280746039999998,-0.01242499962,-0.21192499399999998,-0.223300004,-1.4504000190000002,-8.96700021,-1.293599993,0.2274343381211063,-0.9737934184638004,-0.20129852008865978,0.9795299412524946
419,-0.20441541079999997,-0.35897341369999997,1.2241381409999998,0.18109735850000003,0.01627500013,-0.229950006,-0.2519999933,-1.5091999919999999,-9.270799804,-0.9408000082,0.2502850738399197,-0.9681721860355966,-0.22604807058373463,0.9741161479953871
420,-0.196745038,-0.35743933920000004,1.309319735,0.22473400829999998,0.01627500013,-0.229950006,-0.2519999933,-1.5091999919999999,-9.270799804,-0.9408000082,0.27299721310362157,-0.9620148240217797,-0.25065253225872025,0.9680771188662044
421,-0.1929098666,-0.3566723168,1.174829602,0.21321688589999999,0.0525,-0.245,-0.25637499329999996,-1.352399966,-9.545199776,-0.9211999685,0.29555817896568415,-0.9553247420885155,-0.2750961127544781,0.9614167300122125
422,-0.1871570796,-0.3562887907,1.147641182,0.18613414469999998,0.0525,-0.245,-0.25637499329999996,-1.352399966,-9.545199776,-0.9211999685,0.317955478192515,-0.948105644897956,-0.29936312297335804,0.9541392564000488
423,-0.1814043075,-0.3566723168,1.147224903,0.1133744568,0.08137500167,-0.2652999973,-0.2509500027,-1.4895999519999998,-9.486399948999999,-0.7742000356000001,0.34017670818163653,-0.9403615300567679,-0.3234379871492381,0.9462493690718369
424,-0.17565152050000002,-0.3570558131,1.141560793,0.05467557162,0.08137500167,-0.2652999973,-0.2509500027,-1.4895999519999998,-9.486399948999999,-0.7742000356000001,0.362209563829682,-0.9320966859024398,-0.34730525284482017,0.9377521321470805
425,-0.1698987484,-0.3555217385,1.138056159,0.1163060665,0.12197499630000001,-0.2791249967,-0.2456999993,-1.587600005,-9.447199869,-0.8231999889,0.3840418443464015,-0.9233156891285961,-0.37094960086976775,0.9286529995722622
426,-0.1645294875,-0.3555217385,1.130030394,0.08568443358,0.12197499630000001,-0.2791249967,-0.2456999993,-1.587600005,-9.447199869,-0.8231999889,0.4056614600108995,-0.9140234022506346,-0.39435585511331844,0.9189578116202307
427,-0.160310775,-0.35437119009999996,1.06226933,0.1283814758,0.146474998,-0.2919000053,-0.23397499800000002,-1.74440003,-9.427600121000001,-0.7742000356000001,0.4270564388663756,-0.9042249709130851,-0.4175089922850629,0.908672791141625
428,-0.1553250402,-0.3551382422,1.046650887,0.05264867097,0.146474998,-0.2919000053,-0.23397499800000002,-1.74440003,-9.427600121000001,-0.7742000356000001,0.4482149333496457,-0.8939258210401871,-0.4403941515576344,0.8978045395707416
429,-0.1511063278,-0.3555217385,0.9897191525,0.01213184744,0.1657250047,-0.2994250107,-0.229599998,-1.734600011,-9.309999883,-0.8036000222,0.4691252268517793,-0.883131655831262,-0.46299664410512076,0.8863600326884082
430,-0.1465041041,-0.35437119009999996,0.9662379026000001,0.06239478663,0.1657250047,-0.2994250107,-0.229599998,-1.734600011,-9.309999883,-0.8036000222,0.48977574020622816,-0.8718484526025387,-0.4853019625310809,0.8743466161445822
431,-0.14075133199999998,-0.3555217385,1.018221021,-0.021351225669999998,0.181650002,-0.30257501600000003,-0.24360000129999998,-1.675800037,-9.016000164,-0.8036000222,0.5101550381008377,-0.8600824594771903,-0.5072957901801071,0.8617720007435498
432,-0.1353820711,-0.35437119009999996,1.0429577829999999,0.0460252203,0.181650002,-0.30257501600000003,-0.24360000129999998,-1.675800037,-9.016000164,-0.8036000222,0.530251835410199,-0.8478401919254095,-0.528964010326962,0.8486442574947513
433,-0.132313922,-0.3551382422,0.933980763,-0.0027067381890000003,0.18497499469999998,-0.29610000129999997,-0.279824996,-1.617000064,-8.790600145,-0.7545999959,0.5500550034448413,-0.8351284291564356,-0.5502927152373913,0.8349718124324075
434,-0.1257940978,-0.3555217385,1.034643769,-0.021337397400000003,0.18497499469999998,-0.29610000129999997,-0.279824996,-1.617000064,-8.790600145,-0.7545999959,0.5695535761137884,-0.8219542103645403,-0.5712682150947921,0.8207634412072764
435,-0.1204248443,-0.3562887907,0.9880019426000001,-0.05193362385,0.1826999927,-0.2908500147,-0.3352999973,-1.313200033,-8.780800271,-0.7644000157999999,0.5887367559970819,-0.8083248308310419,-0.591877046787017,0.8060282634540052
436,-0.1146720648,-0.35743933920000004,1.090075135,-0.1035495847,0.1826999927,-0.2908500147,-0.3352999973,-1.313200033,-8.780800271,-0.7644000157999999,0.6075939203248983,-0.7942478378845114,-0.6121059825476628,0.7907757369376986
437,-0.1116039157,-0.36050748829999996,0.9570696354000001,-0.2245891392,0.170975008,-0.2833250093,-0.384299984,-1.23480002,-8.68279978,-0.4900000073,0.626114626859956,-0.7797310267214062,-0.6319420384463039,0.7750156514834589
438,-0.1035500243,-0.3620415628,1.1266874070000001,-0.2604620457,0.170975008,-0.2833250093,-0.384299984,-1.23480002,-8.68279978,-0.4900000073,0.6442886196799462,-0.7647824360894473,-0.651372482722222,0.7587581226927911
439,-0.09818076342,-0.36395916340000006,1.116898656,-0.2647505105,0.155049994,-0.2705500007,-0.43662501340000004,-0.950600028,-8.790600145,-0.48019998740000003,0.6621058348568,-0.7494103438361256,-0.6703848439562786,0.7420135854509107
440,-0.09166094661,-0.3658767641,1.167067289,-0.2943785191,0.155049994,-0.2705500007,-0.43662501340000004,-0.950600028,-8.790600145,-0.48019998740000003,0.6795564060296294,-0.7336232623248076,-0.6889669190756865,0.72479278722912
441,-0.08437409252,-0.3666437864,1.241977811,-0.2582503557,0.1496250033,-0.2630249953,-0.5178250027,-0.6958000228,-8.212399995,-0.7545999959,0.6966306698682668,-0.7174299337209801,-0.7071067811865475,0.7071067811865476
442,-0.07747075707000001,-0.36626026030000003,1.272023439,-0.166488722,0.1496250033,-0.2630249953,-0.5178250027,-0.6958000228,-8.212399995,-0.7545999959,0.71331917142438,-0.7008393251512333,-0.7247927872291198,0.6889669190756867
443,-0.07095094025,-0.36894491310000005,1.281835914,-0.25649070739999996,0.1230250037,-0.271600008,-0.6233499813000001,-0.03920000186,-8.359399855,-0.8917999819,0.7296126693671885,-0.6838606237376776,-0.7420135854509106,0.6703848439562787
444,-0.06289704889,-0.37009546159999995,1.362349987,-0.2605712414,0.1230250037,-0.271600008,-0.6233499813000001,-0.03920000186,-8.359399855,-0.8917999819,0.7455021411008906,-0.6665032315105365,-0.758758122692791,0.6513724827222223
445,-0.054076123979999995,-0.37201306219999997,1.471910834,-0.2988743782,0.1058750033,-0.2854249907,-0.7162750053,0.1077999994,-8.46720022,-1.058400027,0.7609787877609676,-0.6487767602017263,-0.7750156514834587,0.631942038446304
446,-0.04678926989,-0.37661528590000004,1.47009635,-0.4620513618,0.1058750033,-0.2854249907,-0.7162750053,0.1077999994,-8.46720022,-1.058400027,0.7760340390865916,-0.6306910259223215,-0.7907757369376984,0.612105982547663
447,-0.03796834126,-0.3819845319,1.5374625919999998,-0.6217043996,0.055825001,-0.2908500147,-0.7759500026999999,0.38220000789999997,-9.22179985,-1.8914000359999998,0.7906595581664458,-0.6122560437268387,-0.8060282634540048,0.5918770467870176
448,-0.02799685858,-0.38697028159999997,1.6588623519999999,-0.7149603367,0.055825001,-0.2908500147,-0.7759500026999999,0.38220000789999997,-9.22179985,-1.8914000359999998,0.8048472460553258,-0.5934820220673563,-0.8207634412072761,0.5712682150947926
449,-0.01879241131,-0.39425712820000003,1.702798843,-0.9079546331999999,0.02170000017,-0.284375,-0.7290499973000001,0.06860000212,-9.447199869,-1.528800032,0.8185892462589637,-0.5743793571405416,-0.8349718124324074,0.5502927152373914
450,-0.007286853623000001,-0.39770880340000003,1.867755651,-0.8370425105,0.02170000017,-0.284375,-0.7290499973000001,0.06860000212,-9.447199869,-1.528800032,0.8318779490846,-0.5549586271307076,-0.8486442574947508,0.5289640103269626
451,0.001150555792,-0.40346157549999995,1.8312584159999998,-0.9039147496,-0.01679999962,-0.2833250093,-0.7236249733,0.5292000137,-9.731399715,-1.303400013,0.8447059958548822,-0.5352305863520992,-0.8617720007435494,0.5072957901801076
452,0.01073852088,-0.4069132507,1.856460571,-0.8475950956,-0.01679999962,-0.2833250093,-0.7236249733,0.5292000137,-9.731399715,-1.303400013,0.857066282982763,-0.5152061592936467,-0.8743466161445819,0.48530196253108143
453,0.02071000449,-0.4088308215,1.897197962,-0.7307573556999999,-0.009274999499,-0.2994250107,-0.7525,0.6958000228,-9.829400206,-1.724799991,0.8689519659051462,-0.49489643456947796,-0.8863600326884082,0.46299664410512087
454,0.0302979704,-0.4115154743,1.913844109,-0.6825994253000001,0.01417500004,-0.3356500053,-0.7579250240000001,0.5683999836,-10.16259942,-1.5484000709999999,0.8803564628730914,-0.474312658778552,-0.8978045395707416,0.44039415155763456
455,0.04410463944,-0.4138165712,1.847915173,-0.5298380256,0.01417500004,-0.3356500053,-0.7579250240000001,0.5683999836,-10.16259942,-1.5484000709999999,0.8912734585964855,-0.45346623027680766,-0.9086727911416249,0.41750899228506305
456,0.04755630717,-0.41458362340000005,1.83189702,-0.5143896937,0.01417500004,-0.3356500053,-0.7579250240000001,0.5683999836,-10.16259942,-1.5484000709999999,0.9016969077411644,-0.4323686928652699,-0.9189578116202306,0.3943558551133186
457,0.05791131034,-0.41650119420000004,1.90115571,-0.48135757450000005,0.030100000499999998,-0.349474988,-0.7066500187,0.9603999749,-10.07439997,-1.23480002,0.9116210382765421,-0.41103172939762134,-0.9286529995722621,0.3709496008697679
458,0.06596519798,-0.4184187949,1.833288193,-0.4653067291,0.030100000499999998,-0.349474988,-0.7066500187,0.9603999749,-10.07439997,-1.23480002,0.9210403546718966,-0.3894671553107745,-0.9377521321470804,0.34730525284482056
459,0.07516964525,-0.4180352688,1.8335800169999998,-0.3020353615,0.06002500117000001,-0.3879750013,-0.6788250159999999,0.39199999119999995,-10.38799944,-1.5091999919999999,0.9299496409395477,-0.3676869120820136,-0.9462493690718369,0.32343798714923805
460,0.08284001797,-0.4172682464,1.733884215,-0.18004307149999998,0.06002500117000001,-0.3879750013,-0.6788250159999999,0.39199999119999995,-10.38799944,-1.5091999919999999,0.9383439635232295,-0.34570306061635653,-0.9541392564000488,0.299363122973358
461,0.09204446524,-0.4172682464,1.74451983,-0.130972296,0.08347499967000001,-0.4038999987,-0.6447000027,0.5586000003,-10.44679985,-0.8231999889,0.9462186740300694,-0.3235277745677752,-0.9614167300122124,0.27509611275447826
462,0.1012489125,-0.4180352688,1.7609980109999999,-0.1318064332,0.08347499967000001,-0.4038999987,-0.6447000027,0.5586000003,-10.44679985,-0.8231999889,0.953569411804658,-0.30117333359797727,-0.9680771188662043,0.2506525322587208
463,0.1089192852,-0.4180352688,1.7046542169999999,-0.09711813182,0.1261750007,-0.4124749947,-0.5998999786,0.8036000222,-11.21120052,-0.7252000093000001,0.9603921063437793,-0.2786521165764922,-0.9741161479953869,0.22604807058373524
464,0.1150555834,-0.4180352688,1.571632266,-0.08000457287,0.1261750007,-0.4124749947,-0.5998999786,0.8036000222,-11.21120052,-0.7252000093000001,0.9666829795504693,-0.25597659472582046,-0.9795299412524945,0.20129852008866014
465,0.1223424375,-0.4168847203,1.534484982,0.003818392288,0.17955000399999999,-0.4124749947,-0.4740750027,0.35279998479999997,-11.43660054,-0.4900000073,0.9724385478261557,-0.23315932471543463,-0.9843150237975341,0.17641976625780864
466,0.1288622469,-0.4153506458,1.4639952180000002,0.08242693543,0.17955000399999999,-0.4124749947,-0.4740750027,0.35279998479999997,-11.43660054,-0.4900000073,0.9776556239997144,-0.210212941708471,-0.9884683243281114,0.15142777750457698
467,0.1357655823,-0.4130495489,1.436224103,0.1814987659,0.1956500053,-0.3921749973,-0.354550004,0.39199999119999995,-11.22099981,-0.38220000789999997,0.9823313190923794,-0.18715015236495552,-0.9919871770507429,0.12633859492212962
468,0.1419018805,-0.4111319482,1.380013943,0.23827150460000002,0.1956500053,-0.3921749973,-0.354550004,0.39199999119999995,-11.22099981,-0.38220000789999997,0.9864630439175279,-0.16398372780542989,-0.9948693233918952,0.10116832198743228
469,0.1445865184,-0.4103648961,1.163276076,0.20929437879999999,0.2019499993,-0.3645249987,-0.277724998,0.5782000035,-11.56399949,-0.6566000164,0.9900485105144544,-0.14072649653889024,-0.9971129134476474,0.07593311422524651
470,0.1511063278,-0.40806379909999996,1.194303036,0.2816022635,0.2019499993,-0.3645249987,-0.277724998,0.5782000035,-11.56399949,-0.6566000164,0.9930857334153371,-0.11739133735894687,-0.9987165071710528,0.05064916883871261
471,0.1537909657,-0.40806379909999996,1.030414104,0.20355904100000002,0.1933750033,-0.3388000107,-0.157149992,0.3136000149,-11.66200056,-0.6566000164,0.9955730307447012,-0.09399117221213048,-0.9996790752964305,0.025332714313187933
472,0.1557085514,-0.40652972460000003,0.8600811958,0.2273337841,0.1933750033,-0.3388000107,-0.157149992,0.3136000149,-11.66200056,-0.6566000164,0.9975090251507638,-0.07053895904231139,-1.0,1.2246467991473532e-16
473,0.1587767005,-0.40461212399999996,0.7455210686,0.2757159472,0.1826999927,-0.3090499973,0.0008750000130000001,0.2254000004,-11.57379994,-0.9016000018000001,0.9988926445681491,-0.047047684615180434,-0.9996790752964305,-0.02533271431318769
474,0.1606943011,-0.40154397490000004,0.6825442909999999,0.36587283020000005,0.1826999927,-0.3090499973,0.0008750000130000001,0.2254000004,-11.57379994,-0.9016000018000001,0.9997231228115485,-0.02353035732676979,-0.9987165071710529,-0.05064916883871236
475,0.1622283757,-0.3934900761,0.5253505707,0.6520181894,0.190224998,-0.26845000269999997,0.1651999927,0.39199999119999995,-11.43660054,-0.6566000164,1.0,-2.4492935982947064e-16,-0.9971129134476475,-0.07593311422524626
476,0.1606943011,-0.38697028159999997,0.332457751,0.8716534972,0.190224998,-0.26845000269999997,0.1651999927,0.39199999119999995,-11.43660054,-0.6566000164,1.0,0.0,-0.9948693233918952,-0.10116832198743203
477,0.1591602266,-0.3769987822,0.1581064016,1.174014926,0.24044999600000003,-0.2439499927,0.2152500033,0.7839999825,-10.05480022,-0.6369999766,0.9997080140801929,0.02416374523613229,-0.991987177050743,-0.12633859492212896
478,0.160310775,-0.3677943349,0.1750838012,1.3610533480000002,0.24044999600000003,-0.2439499927,0.2152500033,0.7839999825,-10.05480022,-0.6369999766,0.9988322268323266,0.04831337952550707,-0.9884683243281115,-0.1514277775045763
479,0.1599272639,-0.3570558131,0.1237365007,1.568704128,0.2745749927,-0.253399992,0.1961750007,1.401400065,-9.604000187,-0.6761999831000001,0.9973731496914912,0.07243480016176237,-0.9843150237975342,-0.17641976625780798
480,0.1564755887,-0.34631729130000005,-0.08568745852,1.723068953,0.2745749927,-0.253399992,0.1961750007,1.401400065,-9.604000187,-0.6761999831000001,0.9953316347176486,0.09651392091451512,-0.9795299412524945,-0.20129852008865995
481,0.1568591148,-0.3351952732,-0.03382600843999999,1.8524396419999998,0.3225250053,-0.2705500007,0.2313500047,1.2054000329999999,-9.241400182000001,-0.8917999819,0.992708874098054,0.12053668025532306,-0.9741161479953871,-0.22604807058373458
482,0.1557085514,-0.3233061731,-0.08717186749,1.991902351,0.3225250053,-0.2705500007,0.2313500047,1.2054000329999999,-9.241400182000001,-0.8917999819,0.9895063994510511,0.14448904956922135,-0.9680771188662044,-0.2506525322587202
483,0.1568591148,-0.31256765129999997,-0.002881349996,2.042561769,0.3577000093,-0.26845000269999997,0.26127500530000003,0.5292000137,-8.731799733999999,-1.12700002,0.9857260809316509,0.16835704134703855,-0.9614167300122126,-0.2750961127544776
484,0.1564755887,-0.3025961816,-0.02301225066,2.029889584,0.3577000093,-0.26845000269999997,0.26127500530000003,0.5292000137,-8.731799733999999,-1.12700002,0.9813701261394134,0.1921267173537084,-0.954139256400049,-0.2993631229733574
485,0.1564755887,-0.29300820829999996,-0.0182673987,1.994515061,0.34072498799999995,-0.20964999199999998,0.1918000007,-1.8326000630000001,-9.427600121000001,-0.7839999825,0.9764410788292721,0.21578419676780614,-0.946249369071837,-0.3234379871492378
486,0.1564755887,-0.2876389623,-0.012264071029999999,1.751288891,0.34072498799999995,-0.20964999199999998,0.1918000007,-1.8326000630000001,-9.427600121000001,-0.7839999825,0.970941817426052,0.23931566428755777,-0.9377521321470806,-0.3473052528448199
487,0.1534074396,-0.2826532125,-0.1664866954,1.5457873340000001,0.277724998,-0.14472500800000002,0.0573999995,-3.361399949,-10.33899949,-0.6174000099,0.9648755533435515,0.2627073781985869,-0.9286529995722623,-0.3709496008697673
488,0.15225689109999999,-0.2749828398,-0.18208096920000003,1.535354614,0.277724998,-0.14472500800000002,0.0573999995,-3.361399949,-10.33899949,-0.6174000099,0.9582458291091662,0.2859456783986893,-0.9189578116202308,-0.394355855113318
489,0.1503392905,-0.2680795193,-0.23787848649999999,1.493918061,0.097475003,-0.050750001669999996,-0.09939999699999999,-4.351200056000001,-13.35740035,1.666000018,0.9510565162951535,0.3090169943749474,-0.908672791141625,-0.41750899228506283
490,0.1472711414,-0.2653948665,-0.3367866278,1.241911769,0.097475003,-0.050750001669999996,-0.09939999699999999,-4.351200056000001,-13.35740035,1.666000018,0.9433118132577432,0.33190785312852844,-0.8978045395707418,-0.44039415155763395
491,0.14612059300000002,-0.26424431800000003,-0.3198434412,0.9724595547,-0.19389999870000002,0.07525000334,-0.1869000053,-3.675,-16.39539979,3.400600028,0.9350162426854148,0.3546048870425356,-0.8863600326884085,-0.4629966441051203
492,0.1453535557,-0.26692894100000003,-0.2879341245,0.5786955953,-0.19389999870000002,0.07525000334,-0.1869000053,-3.675,-16.39539979,3.400600028,0.9261746489577765,0.37709484168832047,-0.8743466161445824,-0.4853019625310805
493,0.1430524439,-0.27038061620000003,-0.3334833086,0.2526792884,-0.47774998659999995,0.207549994,-0.14,-2.322600034,-15.366399599999998,3.038000023,0.9167921953165824,0.39936458356569554,-0.8617720007435496,-0.5072957901801074
494,0.1411348432,-0.2749828398,-0.34899321200000005,-0.03960955143,-0.47774998659999995,0.207549994,-0.14,-2.322600034,-15.366399599999998,3.038000023,0.9068743608505454,0.4214011077725291,-0.8486442574947509,-0.5289640103269625
495,0.1357655823,-0.281119138,-0.5059272051,-0.31125167010000004,-0.5022500134000001,0.33127500530000004,-0.03534999967,-0.2057999972,-12.03440044,1.871799996,0.8964269372957038,0.44319154559924134,-0.8349718124324075,-0.5502927152373913
496,0.1280952096,-0.28495433929999997,-0.8051346540000001,-0.44516158100000003,-0.5022500134000001,0.33127500530000004,-0.03534999967,-0.2057999972,-12.03440044,1.871799996,0.8854560256532099,0.46472317204376856,-0.8207634412072762,-0.5712682150947924
497,0.1173566952,-0.2876389623,-1.15648663,-0.4642184079,-0.36889999869999995,0.393224988,0.04024999917,0.6467999965,-11.00540025,0.8036000222,0.873968032626518,0.4859834132426061,-0.806028263454005,-0.5918770467870174
498,0.1050840989,-0.2861048877,-1.5016533140000001,-0.2640275359,-0.36889999869999995,0.393224988,0.04024999917,0.6467999965,-11.00540025,0.8036000222,0.8619696668800492,0.5069598538135904,-0.7907757369376986,-0.6121059825476628
499,0.09242798388000001,-0.2861048877,-1.7766784430000002,-0.19847030940000002,-0.1874250007,0.33985000130000004,0.1821749973,0.7839999825,-10.21160054,-0.950600028,0.8494679351215211,0.5276402441061327,-0.7750156514834589,-0.6319420384463039
500,0.07900483161,-0.2861048877,-2.015739202,-0.1410611272,-0.1874250007,0.33985000130000004,0.1821749973,0.7839999825,-10.21160054,-0.950600028,0.8364701380102267,0.54801250735467,-0.7587581226927911,-0.651372482722222
501,0.0640476048,-0.2876389623,-2.264501095,-0.1866072714,-0.1084999967,0.2544499993,0.2483249927,0.117600001,-10.52520001,-3.1066000160000002,0.8229838658936564,0.5680647467311558,-0.7420135854509107,-0.6703848439562786
502,0.05024093762,-0.28495433929999997,-2.3985555169999997,-0.004156144336,-0.1084999967,0.2544499993,0.2483249927,0.117600001,-10.52520001,-3.1066000160000002,0.8090169943749475,0.5877852522924731,-0.72479278722912,-0.6889669190756865
503,0.03796834126,-0.2830367386,-2.401731968,0.09498358518,-0.09677500367000001,0.1958249927,0.3487750053,-1.352399966,-10.96619959,-3.8611999389999996,0.7945776797137543,0.6071625078187113,-0.7071067811865477,-0.7071067811865475
504,0.02301111631,-0.2769004405,-2.5443601609999997,0.3886466622,-0.09677500367000001,0.1958249927,0.3487750053,-1.352399966,-10.96619959,-3.8611999389999996,0.7796743540632224,0.6261851975383137,-0.6889669190756867,-0.7247927872291198
505,0.007670372258999999,-0.26846301559999997,-2.68231225,0.7295359373,-0.14052499529999998,0.1583750033,0.280350008,-1.803200004,-10.16259942,-3.488800061,0.7643157205458483,0.6448422127361707,-0.6703848439562788,-0.7420135854509106
506,-0.004218704533,-0.258875072,-2.606855392,1.047289848,-0.14052499529999998,0.1583750033,0.280350008,-1.803200004,-10.16259942,-3.488800061,0.7485107481711011,0.6631226582407952,-0.6513724827222226,-0.7587581226927905
507,-0.01955944858,-0.2504376471,-2.724587679,1.213938117,-0.22487500670000002,0.05704999982999999,0.06264999866,-2.057999936,-10.16259942,-3.038000023,0.7322686665977736,0.6810158587867972,-0.6319420384463045,-0.7750156514834583
508,-0.03528371081,-0.2393156141,-2.84181428,1.4721289869999998,-0.22487500670000002,0.05704999982999999,0.06264999866,-2.057999936,-10.16259942,-3.038000023,0.7155989607441211,0.698511365248937,-0.6121059825476628,-0.7907757369376986
509,-0.05062445626,-0.22896060350000003,-2.919905663,1.62421155,-0.2941749907,-0.09659999967,-0.03324999958,-2.508800119,-10.78979952,-0.9800000146,0.6985113652489371,0.7155989607441209,-0.5918770467870172,-0.806028263454005
510,-0.06558167933999999,-0.219372645,-2.949774265,1.7063992019999998,-0.2941749907,-0.09659999967,-0.03324999958,-2.508800119,-10.78979952,-0.9800000146,0.6810158587867972,0.7322686665977735,-0.5712682150947924,-0.8207634412072763
511,-0.0820729807,-0.210935235,-3.0436885360000003,1.6997171640000002,-0.33897501469999997,-0.188475008,-0.029049999419999997,-2.410800067,-10.52520001,0.303799995,0.6631226582407952,0.7485107481711012,-0.5502927152373915,-0.8349718124324073
512,-0.09818076342,-0.2036483735,-3.0901196,1.6345857380000002,-0.33897501469999997,-0.188475008,-0.029049999419999997,-2.410800067,-10.52520001,0.303799995,0.6448422127361707,0.7643157205458483,-0.5289640103269627,-0.8486442574947508
513,-0.1158226207,-0.1963615268,-3.201879025,1.586701035,-0.3379249907,-0.23852500199999999,0.007174999937,-2.646000105,-10.97600005,2.479399914,0.6261851975383138,0.7796743540632223,-0.5072957901801077,-0.8617720007435494
514,-0.13461503390000001,-0.18907468019999998,-3.3507483010000003,1.552663207,-0.3379249907,-0.23852500199999999,0.007174999937,-2.646000105,-10.97600005,2.479399914,0.6071625078187113,0.7945776797137543,-0.48530196253108154,-0.8743466161445819
515,-0.1599272639,-0.17987023289999998,-3.439932823,1.472402096,-0.288925004,-0.2705500007,0.09257499933,-2.508800119,-11.554200199999999,3.1752000089999997,0.5877852522924731,0.8090169943749475,-0.4629966441051213,-0.8863600326884079
516,-0.1718163341,-0.17641855780000001,-3.5312433239999996,1.41736865,-0.288925004,-0.2705500007,0.09257499933,-2.508800119,-11.554200199999999,3.1752000089999997,0.5680647467311558,0.8229838658936564,-0.440394151557635,-0.8978045395707414
517,-0.19099226589999999,-0.1702822596,-3.5936868189999998,1.377027035,-0.23239999530000002,-0.2652999973,0.1779750013,-2.577400112,-11.33859947,2.959599864,0.5480125073546701,0.8364701380102266,-0.4175089922850639,-0.9086727911416246
518,-0.21285282079999998,-0.166063562,-3.794931173,1.236808658,-0.23239999530000002,-0.2652999973,0.1779750013,-2.577400112,-11.33859947,2.959599864,0.5276402441061329,0.849467935121521,-0.39435585511331867,-0.9189578116202306
519,-0.2331793159,-0.1591602266,-3.874269485,1.205094457,-0.159775002,-0.2203250027,0.2355500007,-1.969800049,-10.329200199999999,2.351999947,0.5069598538135904,0.8619696668800492,-0.37094960086976797,-0.9286529995722621
520,-0.2531222701,-0.1557085514,-3.90682292,1.063580751,-0.159775002,-0.2203250027,0.2355500007,-1.969800049,-10.329200199999999,2.351999947,0.4859834132426061,0.873968032626518,-0.3473052528448206,-0.9377521321470803
521,-0.2738322914,-0.1503392905,-3.9670403,1.064642787,-0.1074499977,-0.1819999933,0.2719499993,-1.8326000630000001,-10.13320038,1.538600051,0.4647231720437686,0.8854560256532099,-0.3234379871492385,-0.9462493690718367
522,-0.2941587865,-0.1476546675,-3.997681379,0.9310203195000001,-0.1074499977,-0.1819999933,0.2719499993,-1.8326000630000001,-10.13320038,1.538600051,0.44319154559924134,0.8964269372957038,-0.2993631229733585,-0.9541392564000487
523,-0.3133347034,-0.1426689178,-3.9506220819999998,0.9497288465000001,-0.046725001339999996,-0.15855000730000002,0.288925004,-1.372000006,-9.594199729,0.8330000087999999,0.42140110777252904,0.9068743608505455,-0.27509611275447876,-0.9614167300122123
524,-0.3328941464,-0.1388337314,-3.933897257,0.9003353715000001,-0.046725001339999996,-0.15855000730000002,0.288925004,-1.372000006,-9.594199729,0.8330000087999999,0.39936458356569543,0.9167921953165825,-0.2506525322587204,-0.9680771188662043
525,-0.35130304100000004,-0.13346447050000002,-3.876525879,0.9451652169,0.019425000249999998,-0.1627500033,0.257949996,-1.342599946,-9.447199869,0.37239998799999996,0.37709484168832047,0.9261746489577765,-0.22604807058373488,-0.974116147995387
526,-0.368177861,-0.1277116984,-3.753569841,0.9984413981,0.019425000249999998,-0.1627500033,0.257949996,-1.342599946,-9.447199869,0.37239998799999996,0.35460488704253557,0.9350162426854148,-0.20129852008866023,-0.9795299412524945
527,-0.38121750950000005,-0.12157540019999999,-3.448287964,1.063592911,0.08347499967000001,-0.184100008,0.2152500033,-1.156400007,-9.280600262,0.5488000169,0.33190785312852833,0.9433118132577432,-0.17641976625780872,-0.9843150237975341
528,-0.3961747289,-0.11658965800000001,-3.317310095,1.0470296140000002,0.08347499967000001,-0.184100008,0.2152500033,-1.156400007,-9.280600262,0.5488000169,0.30901699437494745,0.9510565162951535,-0.15142777750457706,-0.9884683243281114
529,-0.4103648961,-0.1089192852,-3.19760251,1.179105759,0.1326499987,-0.194775002,0.1417500067,-1.195600013,-9.643200266000001,0.6174000099,0.28594567839868923,0.9582458291091662,-0.12633859492212968,-0.9919871770507429
530,-0.42187047,-0.10278298710000001,-2.9769885539999996,1.1965874429999999,0.1326499987,-0.194775002,0.1417500067,-1.195600013,-9.643200266000001,0.6174000099,0.26270737819858686,0.9648755533435515,-0.10116832198743189,-0.9948693233918952
531,-0.4341430664,-0.09741372615,-2.8370096680000003,1.167845726,0.1613500047,-0.1895249987,0.09467499733,-1.1662000270000001,-10.09399972,1.0192000209999998,0.2393156642875576,0.970941817426052,-0.07593311422524612,-0.9971129134476475
532,-0.44564861060000005,-0.0905103907,-2.6937322619999997,1.232504249,0.1613500047,-0.1895249987,0.09467499733,-1.1662000270000001,-10.09399972,1.0192000209999998,0.21578419676780614,0.9764410788292721,-0.05064916883871266,-0.9987165071710528
533,-0.45830473299999996,-0.08552464843,-2.641614199,1.182954907,0.1636250067,-0.16485000130000002,0.08400000333999999,-1.068199974,-10.31939974,1.332800072,0.19212671735370854,0.9813701261394134,-0.025332714313187996,-0.9996790752964305
534,-0.4701938033,-0.08053890616,-2.5808765890000003,1.142841816,0.1636250067,-0.16485000130000002,0.1118249977,-1.12700002,-10.36839969,1.646399978,0.1683570413470384,0.9857260809316509,-1.8369701987210297e-16,-1.0
535,-0.4863016009,-0.07440260798,-2.507613182,1.031222105,0.1540000033,-0.1361500037,0.1118249977,-1.12700002,-10.36839969,1.646399978,0.14448904956922112,0.9895063994510511,0.025332714313187628,-0.9996790752964305
536,-0.4909038246,-0.07056742162,-2.346300125,1.069890499,0.1540000033,-0.1361500037,0.1118249977,-1.12700002,-10.36839969,1.646399978,0.120536680255323,0.992708874098054,0.0506491688387123,-0.9987165071710529
537,-0.5020258427000001,-0.06558167933999999,-2.313024759,0.9982856512,0.138950001,-0.09869999766000001,0.1459500027,-1.097600034,-10.11359947,1.734600011,0.09651392091451522,0.9953316347176486,0.07593311422524576,-0.9971129134476475
538,-0.5100797415,-0.06021242216,-2.13156414,1.016946197,0.138950001,-0.09869999766000001,0.1459500027,-1.097600034,-10.11359947,1.734600011,0.0724348001617624,0.9973731496914912,0.10116832198743154,-0.9948693233918953
539,-0.5192841886999999,-0.0563772358,-2.060497522,0.9546447992,0.10482499599999999,-0.05284999967,0.162050004,-1.411199939,-9.662800014,0.9995999812999999,0.048313379525507044,0.9988322268323266,0.12633859492212932,-0.991987177050743
540,-0.5261875390999999,-0.05062445626,-1.882915974,1.00996685,0.10482499599999999,-0.05284999967,0.162050004,-1.411199939,-9.662800014,0.9995999812999999,0.024163745236132197,0.9997080140801929,0.15142777750457667,-0.9884683243281114
541,-0.5357754827000001,-0.04717278853,-1.8818414209999998,0.9309917092000001,0.08137500167,0.005775000229,0.1384249973,-1.0192000209999998,-9.564800107,1.195600013,6.123233995736766e-17,1.0,0.17641976625780834,-0.9843150237975342
542,-0.5453634857999999,-0.04218704626,-1.892567277,0.9491897820999999,0.08137500167,0.005775000229,0.1384249973,-1.0192000209999998,-9.564800107,1.195600013,-0.024163745236132073,0.9997080140801929,0.20129852008865987,-0.9795299412524946
543,-0.5545679331000001,-0.0383518599,-1.878928661,0.9015768766,0.06649999917,0.047425000669999995,0.19389999870000002,-1.323000053,-10.24099958,1.156400007,-0.04831337952550714,0.9988322268323265,0.22604807058373452,-0.9741161479953871
544,-0.5653064251,-0.03374963626,-1.9455881119999998,0.9017819762,0.06649999917,0.047425000669999995,0.19389999870000002,-1.323000053,-10.24099958,1.156400007,-0.07243480016176229,0.9973731496914912,0.25065253225872014,-0.9680771188662044
545,-0.5771955252000001,-0.029147414489999995,-1.964465141,0.8995506763,0.06002500117000001,0.060200000999999996,0.28367498399999996,-1.5190000119999998,-10.40760036,0.950600028,-0.0965139209145151,0.9953316347176486,0.27509611275447754,-0.9614167300122126
546,-0.5860164165,-0.02531222813,-2.022413731,0.8676515222,0.06002500117000001,0.060200000999999996,0.28367498399999996,-1.5190000119999998,-10.40760036,0.950600028,-0.12053668025532334,0.992708874098054,0.2993631229733573,-0.954139256400049
547,-0.5944538116,-0.021477041769999997,-1.933100939,0.8437617421,0.058974998,0.053899998660000004,0.3828999853,-1.470000058,-10.38799944,0.2744000085,-0.14448904956922146,0.9895063994510511,0.3234379871492374,-0.9462493690718371
548,-0.6044253111,-0.01725833677,-1.934231639,0.8417426943999999,0.058974998,0.053899998660000004,0.3828999853,-1.470000058,-10.38799944,0.2744000085,-0.16835704134703852,0.9857260809316509,0.34730525284481945,-0.9377521321470808
549,-0.6166979074,-0.014573707250000002,-1.982291222,0.7691156864,0.055825001,0.04952499866000001,0.458674984,-1.3818000259999998,-9.741200173,-0.05880000051,-0.19212671735370843,0.9813701261394134,0.37094960086976764,-0.9286529995722622
550,-0.6259023547,-0.011505558159999998,-1.958311081,0.7308187485,0.055825001,0.04952499866000001,0.458674984,-1.3818000259999998,-9.741200173,-0.05880000051,-0.21578419676780602,0.9764410788292721,0.3943558551133184,-0.9189578116202307
551,-0.6312716007,-0.009204446338,-1.820094705,0.6648111343,0.049349998830000005,0.07630000234,0.507675004,-1.420999959,-9.26099993,-0.03920000186,-0.23931566428755793,0.970941817426052,0.4175089922850628,-0.908672791141625
552,-0.6423936486,-0.00651981635,-1.8254108430000002,0.6372392178,0.049349998830000005,0.07630000234,0.507675004,-1.420999959,-9.26099993,-0.03920000186,-0.2627073781985869,0.9648755533435515,0.4403941515576339,-0.8978045395707419
553,-0.6508311032999999,-0.007286853623000001,-1.7917907240000002,0.4306833446,0.042000001669999995,0.06457500099999999,0.51625,-1.528800032,-9.466800201,0.1666000091,-0.2859456783986891,0.9582458291091662,0.46299664410512026,-0.8863600326884086
554,-0.6554332972,-0.008053890429,-1.6438584330000001,0.2832215428,0.042000001669999995,0.06457500099999999,0.51625,-1.528800032,-9.466800201,0.1666000091,-0.30901699437494756,0.9510565162951535,0.4853019625310804,-0.8743466161445825
555,-0.6669388413,-0.009587964974,-1.6207209830000002,0.12485846130000001,0.024849999249999997,0.067724998,0.5930749893,-1.430799979,-9.427600121000001,0.4214000143,-0.33190785312852866,0.943311813257743,0.5072957901801066,-0.8617720007435501
556,-0.6738421917,-0.009587964974,-1.648589015,0.1017868817,0.024849999249999997,0.067724998,0.5930749893,-1.430799979,-9.427600121000001,0.4214000143,-0.3546048870425357,0.9350162426854148,0.5289640103269616,-0.8486442574947515
557,-0.6784444451,-0.009204446338,-1.455992222,0.10631048679999999,0.024849999249999997,0.07840000033,0.6069000053,-1.470000058,-9.329600215,0.7644000157999999,-0.37709484168832036,0.9261746489577766,0.5502927152373912,-0.8349718124324075
558,-0.6880323887,-0.009971483611,-1.586452842,0.050519332289999996,0.024849999249999997,0.07840000033,0.6069000053,-1.470000058,-9.329600215,0.7644000157999999,-0.3993645835656953,0.9167921953165825,0.571268215094792,-0.8207634412072765
559,-0.6914840340999999,-0.008437409066,-1.361719251,0.1233438551,0.03237500042,0.07087500333999999,0.6016500187,-1.0192000209999998,-9.319799757,0.4214000143,-0.42140110777252937,0.9068743608505453,0.5918770467870169,-0.8060282634540052
560,-0.6976203322,-0.008820927702,-1.322998524,0.0792009607,0.03237500042,0.07087500333999999,0.6016500187,-1.0192000209999998,-9.319799757,0.4214000143,-0.44319154559924123,0.8964269372957038,0.6121059825476624,-0.7907757369376989
561,-0.7022225857,-0.009971483611,-1.221717715,0.004276791587,0.015225000080000002,0.04637500166999999,0.6089999866,-0.9408000082,-9.280600262,0.1568000074,-0.4647231720437685,0.8854560256532099,0.6319420384463041,-0.7750156514834586
562,-0.7068247795,-0.009971483611,-1.141487479,0.007174555212,0.015225000080000002,0.04637500166999999,0.6089999866,-0.9408000082,-9.280600262,0.1568000074,-0.4859834132426061,0.873968032626518,0.6513724827222223,-0.7587581226927909
563,-0.7110434770999999,-0.01035500225,-1.065593719,-0.01499580406,-0.005074999854,0.03569999933,0.6261499786,-0.7055999695999999,-9.172799897,-0.05880000051,-0.5069598538135904,0.8619696668800492,0.6703848439562785,-0.7420135854509109
564,-0.7152621746,-0.01112203952,-1.008749366,-0.06509489566,-0.005074999854,0.03569999933,0.6261499786,-0.7055999695999999,-9.172799897,-0.05880000051,-0.5276402441061329,0.849467935121521,0.6889669190756864,-0.72479278722912
565,-0.7160292268,-0.01035500225,-0.7799425125,-0.01118711196,-0.03815000117,0.01224999979,0.6272000027,-0.5879999869,-9.22179985,-0.02940000026,-0.5480125073546698,0.8364701380102268,0.7071067811865475,-0.7071067811865477
566,-0.7194809318000001,-0.008437409066,-0.7418478727,0.1024334952,-0.03815000117,0.01224999979,0.6272000027,-0.5879999869,-9.22179985,-0.02940000026,-0.5680647467311556,0.8229838658936566,0.7247927872291198,-0.6889669190756867
567,-0.7202479243000001,-0.009971483611,-0.5861064792,0.0034945476799999996,-0.074375,-0.01224999979,0.620899992,-0.5193999939,-9.329600215,-0.17639999239999998,-0.587785252292473,0.8090169943749475,0.7420135854509106,-0.6703848439562788
568,-0.7217820287000001,-0.01073852088,-0.5054565072,-0.038756560530000005,-0.074375,-0.01224999979,0.620899992,-0.5193999939,-9.329600215,-0.17639999239999998,-0.6071625078187112,0.7945776797137544,0.7587581226927905,-0.6513724827222226
569,-0.7240831256,-0.01035500225,-0.49640604850000003,-0.011995739299999999,-0.110600003,-0.039025000330000004,0.6079500294,-0.2939999934,-8.839600098,-0.0,-0.6261851975383137,0.7796743540632224,0.7750156514834583,-0.6319420384463045
570,-0.725233674,-0.009204446338,-0.4289174974,0.05300718546,-0.110600003,-0.039025000330000004,0.6079500294,-0.2939999934,-8.839600098,-0.0,-0.6448422127361707,0.7643157205458483,0.7907757369376986,-0.6121059825476628
571,-0.725233674,-0.01073852088,-0.3235424459,-0.04217418656000001,-0.1384249973,-0.053899998660000004,0.5995499706,-0.37239998799999996,-8.770999813,0.048999998899999994,-0.6631226582407953,0.7485107481711011,0.806028263454005,-0.5918770467870172
572,-0.7248501778,-0.009971483611,-0.2153131515,0.007348038256,-0.1384249973,-0.053899998660000004,0.5995499706,-0.37239998799999996,-8.770999813,0.048999998899999994,-0.6810158587867973,0.7322686665977733,0.8207634412072763,-0.5712682150947924
573,-0.7236996293000001,-0.009204446338,-0.09491942822999999,0.04430373758,-0.1587249947,-0.06142499982999999,0.5706750107,0.1274000026,-8.526000047,0.2155999988,-0.6985113652489369,0.7155989607441212,0.8349718124324073,-0.5502927152373915
574,-0.7236996293000001,-0.009587964974,-0.07139521837,0.01259646565,-0.1587249947,-0.06142499982999999,0.5706750107,0.1274000026,-8.526000047,0.2155999988,-0.7155989607441211,0.698511365248937,0.8486442574947508,-0.5289640103269627
575,-0.722165525,-0.009971483611,0.032224372030000004,-0.01058768667,-0.163974998,-0.053899998660000004,0.4969999933,0.5782000035,-8.672999907000001,0.6566000164,-0.7322686665977736,0.6810158587867972,0.8617720007435494,-0.5072957901801077
576,-0.7206314802,-0.009204446338,0.1156366467,0.03392501548,-0.163974998,-0.053899998660000004,0.4969999933,0.5782000035,-8.672999907000001,0.6566000164,-0.7485107481711012,0.6631226582407952,0.8743466161445819,-0.48530196253108154
577,-0.7171797752,-0.008820927702,0.2728875875,0.04032625258,-0.168349998,-0.03359999925,0.45009998799999995,0.4018000111,-8.741600192,0.8330000087999999,-0.7643157205458484,0.6448422127361705,0.8863600326884079,-0.46299664410512137
578,-0.7152621746,-0.008437409066,0.3152469397,0.05351942033,-0.168349998,-0.03359999925,0.45009998799999995,0.4018000111,-8.741600192,0.8330000087999999,-0.7796743540632225,0.6261851975383135,0.8978045395707412,-0.44039415155763506
579,-0.7156457305,-0.007286853623000001,0.2072453052,0.09764657915,-0.1522499967,0.004725000188,0.402149992,0.6369999766,-8.506399715,0.9995999812999999,-0.7945776797137545,0.607162507818711,0.9086727911416246,-0.41750899228506394
580,-0.7141116261,-0.005752779078,0.2337042838,0.1528073549,-0.1522499967,0.004725000188,0.402149992,0.6369999766,-8.506399715,0.9995999812999999,-0.8090169943749473,0.5877852522924732,0.9189578116202306,-0.3943558551133187
581,-0.7137281298999999,-0.003835186129,0.18103042239999997,0.21466806530000002,-0.1128749967,0.063349998,0.3487750053,0.882000035,-8.957199752000001,1.6267999380000002,-0.8229838658936564,0.5680647467311558,0.9286529995722621,-0.370949600869768
582,-0.7114270329000001,-0.001150555792,0.2396269739,0.2917967439,-0.1128749967,0.063349998,0.3487750053,0.882000035,-8.957199752000001,1.6267999380000002,-0.8364701380102267,0.54801250735467,0.9377521321470803,-0.34730525284482067
583,-0.7095094323000001,0.004985741805,0.2721327245,0.5318428278,-0.077524997,0.11042499900000001,0.3337249947,0.9800000146,-8.163400042000001,1.950200009,-0.8494679351215211,0.5276402441061326,0.9462493690718367,-0.32343798714923855
584,-0.7060577273,0.009587964974,0.37655296920000003,0.6342097521,-0.077524997,0.11042499900000001,0.3337249947,0.9800000146,-8.163400042000001,1.950200009,-0.8619696668800494,0.5069598538135902,0.9541392564000487,-0.29936312297335854
585,-0.6991544366,0.015724262219999997,0.6430237889,0.7891665101,-0.04340000033,0.157324996,0.1043000007,0.7839999825,-7.467600237999999,1.068199974,-0.8739680326265179,0.48598341324260624,0.9614167300122123,-0.2750961127544788
586,-0.6922510862000001,0.02032648586,0.836299777,0.8286249638,-0.04340000033,0.157324996,0.1043000007,0.7839999825,-7.467600237999999,1.068199974,-0.88545602565321,0.4647231720437683,0.9680771188662041,-0.25065253225872136
587,-0.6834301353,0.02531222813,1.078816652,0.8716863394,-0.04987499833,0.194599998,-0.1282749987,0.4704000041,-7.947799897,1.460200039,-0.8964269372957038,0.4431915455992414,0.9741161479953868,-0.2260480705837358
588,-0.6746092439,0.029914451760000006,1.259870887,0.8932639956,-0.04987499833,0.194599998,-0.1282749987,0.4704000041,-7.947799897,1.460200039,-0.9068743608505454,0.4214011077725291,0.9795299412524945,-0.20129852008866028
589,-0.6657882929,0.032599080350000004,1.3975335359999999,0.7990768551999999,-0.02204999983,0.2992500067,-0.23817499399999997,0.43119999770000006,-8.800400019,1.940399989,-0.9167921953165824,0.3993645835656955,0.9843150237975341,-0.17641976625780878
590,-0.6569674015,0.03528371081,1.5116740469999999,0.7179635167,-0.02204999983,0.2992500067,-0.23817499399999997,0.43119999770000006,-8.800400019,1.940399989,-0.9261746489577765,0.37709484168832075,0.9884683243281114,-0.15142777750457712
591,-0.6496804953,0.03911889717,1.514278293,0.7247661352,0.03132499933,0.4038999987,-0.3139500093,-0.07840000372,-9.202200103,2.107000035,-0.9350162426854149,0.35460488704253545,0.9919871770507429,-0.12633859492212973
592,-0.6443112492999999,0.04142000899,1.401204348,0.6565510631,0.03132499933,0.4038999987,-0.3139500093,-0.07840000372,-9.202200103,2.107000035,-0.9433118132577432,0.33190785312852816,0.9948693233918952,-0.10116832198743196
593,-0.6393254995000001,0.04525519535,1.287360668,0.6905441284,0.07927500367000001,0.47634998799999995,-0.419649992,-2.44019998,-10.34879994,2.489200079,-0.9510565162951535,0.3090169943749475,0.9971129134476475,-0.07593311422524619
594,-0.6335727572,0.0479398258,1.2488374709999999,0.6519808769,0.07927500367000001,0.47634998799999995,-0.419649992,-2.44019998,-10.34879994,2.489200079,-0.9582458291091663,0.28594567839868884,0.9987165071710528,-0.050649168838712726
595,-0.6285870075,0.0479398258,1.109190702,0.448020488,0.1613500047,0.546875,-0.4910499907,-3.606400007,-12.25,1.617000064,-0.9648755533435515,0.2627073781985869,0.9996790752964305,-0.025332714313188058
596,-0.62436831,0.04870686308,1.093181491,0.38650324939999997,0.1613500047,0.546875,-0.4910499907,-3.606400007,-12.25,1.617000064,-0.970941817426052,0.23931566428755766,1.0,-2.4492935982947064e-16
597,-0.6201496124,0.04832334444,1.0229870079999999,0.2643268108,0.25427499530000003,0.5851999760000001,-0.4046000147,-2.498999953,-14.56279943,0.6958000228,-0.9764410788292721,0.21578419676780597,1.0,0.0
598,-0.6147803068,0.0479398258,1.0337584020000001,0.1745422184,0.25427499530000003,0.5851999760000001,-0.4046000147,-2.498999953,-14.56279943,0.6958000228,-0.9813701261394134,0.19212671735370856,0.9997685019798909,0.0215160974362222
599,-0.6117121577,0.04640575126,0.9257917404000001,0.054277747870000004,0.4144000053,0.5810000134000001,-0.23292500730000001,-2.312800014,-14.26879971,-0.05880000051,-0.9857260809316509,0.16835704134703824,0.99907411510223,0.04302223300453047
600,-0.6086440086,0.04448815808,0.8465732336,-0.05438750237000001,0.4144000053,0.5810000134000001,-0.23292500730000001,-2.312800014,-14.26879971,-0.05880000051,-0.9895063994510511,0.1444890495692214,0.9979171608653922,0.06450844944931629
601,-0.6059594154,0.0437211208,0.769118011,-0.07503329217,0.5636749839999999,0.5479249907,-0.1303749967,-2.028600022,-12.67139983,-0.18619999399999998,-0.992708874098054,0.12053668025532308,0.9962981749346078,0.08596479873744647
602,-0.6044253111,0.0437211208,0.654540062,-0.04782038555,0.5636749839999999,0.5479249907,-0.1303749967,-2.028600022,-12.67139983,-0.18619999399999998,-0.9953316347176486,0.09651392091451506,0.994217906893952,0.10738134666416303
603,-0.5998231172999999,0.0437211208,0.7193991542,-0.030351826919999998,0.6319250107,0.5458250093,0.02117500067,-2.841999918,-9.623599935,-0.43119999770000006,-0.9973731496914912,0.07243480016176225,0.99167731989929,0.12874817745258077
604,-0.5979055165999999,0.04295408353,0.6296178102000001,-0.06534781307,0.6319250107,0.5458250093,0.02117500067,-2.841999918,-9.623599935,-0.43119999770000006,-0.9988322268323266,0.048313379525506885,0.9886775902323404,0.15005539834465265
605,-0.5925362706,0.04295408353,0.7512632607999999,-0.05300978199,0.582925024,0.572424984,-0.058974998,-2.5382000330000003,-9.192400229,0.7938000023,-0.9997080140801929,0.02416374523613248,0.9852201067560606,0.1712931441814776
606,-0.5890845656,0.04026945308,0.7274605632,-0.1852403879,0.582925024,0.572424984,-0.058974998,-2.5382000330000003,-9.192400229,0.7938000023,-1.0,1.2246467991473532e-16,0.9813064702716093,0.19245158197082993
607,-0.5829482675,0.03681778535,0.8538344501999999,-0.3231030107,0.49,0.6268499947,-0.09520000099999999,-3.9787998860000005,-10.28020024,0.7938000023,-0.9997080140801929,-0.024163745236132236,0.9769384927771817,0.21352091543979604
608,-0.576428473,0.034133154900000004,0.9736178517,-0.38750237229999995,0.49,0.6268499947,-0.09520000099999999,-3.9787998860000005,-10.28020024,0.7938000023,-0.9988322268323266,-0.048313379525506635,0.9721181966290613,0.23449138957040971
609,-0.571059227,0.033366117630000004,1.002022743,-0.3318111598,0.3780000067,0.6557250214,-0.08452499866,-4.7921999280000005,-12.05400019,0.1077999994,-0.997373149691491,-0.07243480016176289,0.9668478136052776,0.255353295116187
610,-0.5656899214,0.03106500767,1.01568079,-0.3630106449,0.3780000067,0.6557250214,-0.08452499866,-4.7921999280000005,-12.05400019,0.1077999994,-0.9953316347176486,-0.09651392091451526,0.9611297838723007,0.2760969730974688
611,-0.5595536232,0.029914451760000006,1.0639595990000001,-0.3231262565,0.29259998800000003,0.6385750294,-0.08977500199999999,-4.047399878999999,-11.10340016,0.4115999945,-0.992708874098054,-0.12053668025532327,0.9549667548552553,0.2967128192734902
612,-0.5538008809,0.02722982131,1.0710232259999999,-0.3706570566,0.29259998800000003,0.6385750294,-0.08977500199999999,-4.047399878999999,-11.10340016,0.4115999945,-0.9895063994510511,-0.14448904956922118,0.9483615800121715,0.31719128858910595
613,-0.5468975306,0.01994296722,1.149303079,-0.658751905,0.17849999670000002,0.6119750214,-0.2061499953,-3.684799874,-12.04419973,-0.4214000143,-0.9857260809316509,-0.16835704134703847,0.9413173175128471,0.3375228995941133
614,-0.5419117808,0.01227259543,1.105837345,-0.8910184503,0.17849999670000002,0.6119750214,-0.2061499953,-3.684799874,-12.04419973,-0.4214000143,-0.9813701261394134,-0.19212671735370837,0.9338372288229252,0.35769823883312546
615,-0.5338578820000001,-0.004602223169,1.126394272,-1.434009314,0.055825001,0.5948250293999999,-0.1111249983,-3.988600051,-13.09279966,-1.0192000209999998,-0.9764410788292721,-0.21578419676780575,0.9259247771938499,0.3777079652039648
616,-0.5319402814,-0.01073852088,1.043603182,-1.53881669,0.055825001,0.5948250293999999,-0.1111249983,-3.988600051,-13.09279966,-1.0192000209999998,-0.9709418174260519,-0.23931566428755832,0.9175836260593937,0.39754281428255583
617,-0.5269545913,-0.02377815358,1.037269235,-1.817014933,-0.0006999999844,0.6130249786,0.08084999799999999,-4.057200044,-12.12259989,-1.470000058,-0.9648755533435515,-0.2627073781985871,0.9088176373395029,0.4171936026123168
618,-0.5227358341,-0.03758482262,0.9861506224,-2.060354233,-0.0006999999844,0.6130249786,0.08084999799999999,-4.057200044,-12.12259989,-1.470000058,-0.9582458291091661,-0.2859456783986895,0.8996308696522434,0.43665123195606387
619,-0.519667685,-0.05139149353,0.8881745338,-2.247138739,-0.01679999962,0.6216000079999999,0.19389999870000002,-3.184999883,-11.44639983,-1.773799944,-0.9510565162951534,-0.30901699437494773,0.8900275764346767,0.45590669350845875
620,-0.5142984389999999,-0.06749927253,0.9431864023000001,-2.380758047,-0.01679999962,0.6216000079999999,0.19389999870000002,-3.184999883,-11.44639983,-1.773799944,-0.9433118132577432,-0.3319078531285284,0.8800122039735356,0.47495107206705023
621,-0.5108467937,-0.08015538752000001,0.8227233291,-2.4193003180000003,-0.011374999579999998,0.574525032,0.28367498399999996,-3.0183999839999998,-10.48600051,-2.0089999819999997,-0.9350162426854148,-0.3546048870425356,0.869589389346611,0.4937755501599772
622,-0.5050939918,-0.09357853979,0.9053369761,-2.492929459,-0.011374999579999998,0.574525032,0.28367498399999996,-3.0183999839999998,-10.48600051,-2.0089999819999997,-0.9261746489577765,-0.3770948416883205,0.8587639582758031,0.5123714121284235
623,-0.5012587905,-0.1050840989,0.9106630087,-2.442466259,0.0003499999922,0.5265750027,0.2089499927,-2.165800008,-9.50600028,-2.302999994,-0.9167921953165825,-0.39936458356569526,0.8475409228928312,0.5307300481619333
624,-0.49704012270000003,-0.1169731766,0.8795505165999999,-2.425341368,0.0003499999922,0.5265750027,0.2089499927,-2.165800008,-9.50600028,-2.302999994,-0.9068743608505455,-0.4214011077725289,0.8359254794186369,0.5488429582847192
625,-0.48975327609999997,-0.12732817230000001,1.027971387,-2.330047369,-0.0029750000309999997,0.45289998530000003,0.126699996,-1.842399937,-8.976800084,-2.508800119,-0.8964269372957037,-0.44319154559924157,0.8239230057575543,0.5667017562911175
626,-0.4843840003,-0.1388337314,1.0417168140000002,-2.31531477,-0.0029750000309999997,0.45289998530000003,0.126699996,-1.842399937,-8.976800084,-2.508800119,-0.8854560256532097,-0.46472317204376884,0.8115390590073611,0.5842981736283683
627,-0.4770971537,-0.1495722532,1.084355712,-2.2750759119999997,-0.02310000092,0.38675000670000004,0.06492500067000001,-1.92079995,-8.731799733999999,-2.655799979,-0.873968032626518,-0.4859834132426061,0.798779372886365,0.6016240632249225
628,-0.4709608555,-0.1599272639,1.180603504,-2.228907824,-0.02310000092,0.38675000670000004,0.06492500067000001,-1.92079995,-8.731799733999999,-2.655799979,-0.8619696668800492,-0.5069598538135904,0.7856498550787143,0.6186714032625034
629,-0.4652080834,-0.1691317111,1.17508924,-2.134129524,-0.04987499833,0.3174499893,-0.001225000005,-1.6267999380000002,-8.633799827,-2.773399925,-0.849467935121521,-0.5276402441061329,0.7721565844991642,0.6354323008901774
630,-0.45868825909999994,-0.1779526323,1.201141834,-2.039049625,-0.04987499833,0.3174499893,-0.001225000005,-1.6267999380000002,-8.633799827,-2.773399925,-0.8364701380102268,-0.5480125073546698,0.7583058084785625,0.6518989958787125
631,-0.44871675969999997,-0.1863900423,1.340311885,-1.947534919,-0.1053499997,0.242724998,-0.06737499832999999,-1.479799932,-8.731799733999999,-2.959599864,-0.8229838658936566,-0.5680647467311556,0.7441039398713607,0.6680638642135335
632,-0.4421969652,-0.1955944896,1.339159131,-1.913872957,-0.1053499997,0.242724998,-0.06737499832999999,-1.479799932,-8.731799733999999,-2.959599864,-0.8090169943749472,-0.5877852522924734,0.7295575540864876,0.6839194216246105
633,-0.4352936149,-0.20441541079999997,1.440250635,-1.877015233,-0.1587249947,0.1583750033,-0.1100749993,-1.666000018,-8.947399878999999,-2.841999918,-0.794577679713754,-0.6071625078187115,0.714673386042961,0.699458327051647
634,-0.4283902943,-0.21285282079999998,1.355360389,-1.82738471,-0.1587249947,0.1583750033,-0.1100749993,-1.666000018,-8.947399878999999,-2.841999918,-0.779674354063222,-0.626185197538314,0.6994583270516471,0.7146733860429608
635,-0.4180352688,-0.2247419059,1.4620959759999999,-1.7823238369999999,-0.21,0.09012500167000001,-0.1293249977,-1.617000064,-9.045399785,-2.3715999869999997,-0.7643157205458483,-0.6448422127361707,0.6839194216246106,0.7295575540864875
636,-0.4122824967,-0.2285770923,1.4523127080000002,-1.69416213,-0.21,0.09012500167000001,-0.1293249977,-1.617000064,-9.045399785,-2.3715999869999997,-0.7485107481711011,-0.6631226582407953,0.6680638642135336,0.7441039398713605
637,-0.4042285979,-0.2381650507,1.494969845,-1.7527794840000002,-0.2525250053,0.02712499917,-0.133525002,-1.558199945,-9.11400007,-2.391200027,-0.7322686665977733,-0.6810158587867973,0.6518989958787126,0.7583058084785624
638,-0.39732527729999995,-0.2458354235,1.4643428330000001,-1.70751524,-0.2525250053,0.02712499917,-0.133525002,-1.558199945,-9.11400007,-2.391200027,-0.7155989607441212,-0.6985113652489369,0.6354323008901775,0.7721565844991642
639,-0.39042195679999997,-0.2538893223,1.438797235,-1.594496727,-0.28559999469999997,-0.02835000008,-0.1090250003,-1.91099993,-8.937600005,-1.6856000569999998,-0.6985113652489371,-0.7155989607441209,0.6186714032625035,0.7856498550787143
640,-0.38428565859999997,-0.26040914649999997,1.3848022219999998,-1.5069751740000001,-0.28559999469999997,-0.02835000008,-0.1090250003,-1.91099993,-8.937600005,-1.6856000569999998,-0.6810158587867975,-0.7322686665977731,0.6016240632249227,0.7987793728863648
641,-0.37814936039999997,-0.2692300677,1.332802415,-1.577280521,-0.2962750053,-0.063525002,-0.101674999,-1.666000018,-9.182599771,-1.24460004,-0.6631226582407949,-0.7485107481711013,0.5842981736283686,0.811539059007361
642,-0.37201306219999997,-0.2742158175,1.3018729690000002,-1.432124138,-0.2962750053,-0.063525002,-0.101674999,-1.666000018,-9.182599771,-1.24460004,-0.6448422127361703,-0.7643157205458486,0.5667017562911176,0.8239230057575542
643,-0.36549323799999994,-0.2792015374,1.299156427,-1.315134168,-0.2899749947,-0.09450000167000001,-0.07909999967,-1.6561999980000002,-9.084599864,-1.2054000329999999,-0.6261851975383133,-0.7796743540632227,0.5488429582847193,0.8359254794186368
644,-0.35935693979999994,-0.2853378356,1.288811564,-1.287299275,-0.2899749947,-0.09450000167000001,-0.07909999967,-1.6561999980000002,-9.084599864,-1.2054000329999999,-0.6071625078187114,-0.7945776797137541,0.5307300481619335,0.847540922892831
645,-0.3551382422,-0.28994005920000004,1.1664760109999999,-1.191170931,-0.2878750134,-0.11689999699999999,-0.06737499832999999,-1.734600011,-8.96700021,-0.9995999812999999,-0.5877852522924732,-0.8090169943749473,0.5123714121284237,0.8587639582758029
646,-0.34823489189999995,-0.2941587865,1.217813969,-1.09947741,-0.2878750134,-0.11689999699999999,-0.06737499832999999,-1.734600011,-8.96700021,-0.9995999812999999,-0.5680647467311559,-0.8229838658936564,0.49377555015997726,0.869589389346611
647,-0.3424821198,-0.2987609804,1.204183698,-1.051712275,-0.2707250047,-0.114799999,-0.06860000134,-1.8326000630000001,-8.878800177999999,-0.9211999685,-0.54801250735467,-0.8364701380102267,0.47495107206705045,0.8800122039735355
648,-0.33711284399999997,-0.3022126555,1.175754309,-0.9628892540999999,-0.2707250047,-0.114799999,-0.06860000134,-1.8326000630000001,-8.878800177999999,-0.9211999685,-0.5276402441061327,-0.8494679351215211,0.45590669350845897,0.8900275764346766
649,-0.3325106204,-0.30489727850000004,1.101276517,-0.8556183576999999,-0.2504250073,-0.1041249967,-0.08977500199999999,-1.773799944,-8.829800224,-0.9995999812999999,-0.5069598538135903,-0.8619696668800493,0.43665123195606403,0.8996308696522433
650,-0.3267578483,-0.30643135309999997,1.110496998,-0.709105432,-0.2504250073,-0.1041249967,-0.08977500199999999,-1.773799944,-8.829800224,-0.9995999812999999,-0.48598341324260597,-0.873968032626518,0.4171936026123168,0.9088176373395029
651,-0.3221556246,-0.3094995022,1.039245248,-0.69413203,-0.2238249993,-0.09134999632999999,-0.1069250023,-1.8521999569999998,-8.565200126,-0.7545999959,-0.46472317204376834,-0.88545602565321,0.39754281428255606,0.9175836260593937
652,-0.3137182295,-0.31256765129999997,1.202442646,-0.6731334329,-0.2238249993,-0.09134999632999999,-0.1069250023,-1.8521999569999998,-8.565200126,-0.7545999959,-0.443191545599241,-0.8964269372957039,0.37770796520396505,0.9259247771938498
653,-0.3087324798,-0.314868778,1.155656099,-0.6161109209000001,-0.2110500073,-0.066674999,-0.1431500053,-1.587600005,-9.025800037,-0.7839999825,-0.42140110777252876,-0.9068743608505456,0.3576982388331257,0.9338372288229251
654,-0.3014456332,-0.3160193264,1.2509393690000001,-0.5062665343,-0.2110500073,-0.066674999,-0.1431500053,-1.587600005,-9.025800037,-0.7839999825,-0.39936458356569593,-0.9167921953165822,0.3375228995941133,0.9413173175128471
655,-0.2945422828,-0.320238024,1.170734763,-0.5458211899000001,-0.16625,-0.04112499833,-0.1293249977,-1.950200009,-8.545599794,-0.6566000164,-0.37709484168832075,-0.9261746489577763,0.3171912885891062,0.9483615800121715
656,-0.2907071114,-0.3213886023,1.1884579659999999,-0.5200449228,-0.16625,-0.04112499833,-0.1293249977,-1.950200009,-8.545599794,-0.6566000164,-0.3546048870425359,-0.9350162426854147,0.29671281927349047,0.9549667548552552
657,-0.28495433929999997,-0.3236896992,1.183482289,-0.5040252209,-0.1373749983,-0.02625,-0.177275002,-1.362199986,-8.937600005,-0.7644000157999999,-0.33190785312852783,-0.9433118132577433,0.27609697309746906,0.9611297838723007
658,-0.2792015374,-0.3267578483,1.185764313,-0.5097908378,-0.1373749983,-0.02625,-0.177275002,-1.362199986,-8.937600005,-0.7644000157999999,-0.30901699437494756,-0.9510565162951535,0.25535329511618704,0.9668478136052775
659,-0.2745993137,-0.3282919228,1.1108068229999999,-0.48871666189999996,-0.08084999799999999,-0.002799999937,-0.13474999669999999,-1.901200056,-8.731799733999999,-0.6272000298,-0.28594567839868934,-0.9582458291091662,0.23449138957040974,0.9721181966290613
660,-0.2696135938,-0.33174359800000003,1.062225223,-0.5327770114,-0.08084999799999999,-0.002799999937,-0.13474999669999999,-1.901200056,-8.731799733999999,-0.6272000298,-0.2627073781985869,-0.9648755533435515,0.2135209154397963,0.9769384927771816
661,-0.2619432211,-0.3336611986,1.1863728759999999,-0.5371329784000001,-0.035,0.004725000188,-0.17202499870000001,-1.362199986,-8.643600285,-0.7447999761,-0.23931566428755774,-0.970941817426052,0.19245158197082995,0.9813064702716093
662,-0.2558069229,-0.3348117471,1.1982373,-0.43356576560000004,-0.035,0.004725000188,-0.17202499870000001,-1.362199986,-8.643600285,-0.7447999761,-0.21578419676780605,-0.9764410788292721,0.17129314418147762,0.9852201067560606
663,-0.2492870986,-0.33596229549999995,1.232399583,-0.3812279403,0.001399999969,-0.002799999937,-0.152774992,-1.6267999380000002,-8.888600051000001,-0.6761999831000001,-0.19212671735370823,-0.9813701261394134,0.1500553983446527,0.9886775902323404
664,-0.2443013489,-0.3351952732,1.174484015,-0.2320329547,0.001399999969,-0.002799999937,-0.152774992,-1.6267999380000002,-8.888600051000001,-0.6761999831000001,-0.16835704134703833,-0.9857260809316509,0.12874817745258105,0.99167731989929
665,-0.2373980135,-0.3351952732,1.219720125,-0.1686476618,0.051450000999999995,0.007874999791,-0.1826999927,-1.323000053,-8.496599841,-0.6174000099,-0.14448904956922104,-0.9895063994510511,0.10738134666416307,0.994217906893952
666,-0.230494678,-0.3351952732,1.256124616,-0.1226443797,0.051450000999999995,0.007874999791,-0.1826999927,-1.323000053,-8.496599841,-0.6174000099,-0.12053668025532269,-0.9927088740980541,0.08596479873744652,0.9962981749346078
667,-0.22359134260000002,-0.334428221,1.286760449,-0.04671268165,0.08242500067000001,-0.01767499983,-0.2595249987,-1.077999994,-8.839600098,-0.7350000292000001,-0.09651392091451468,-0.9953316347176486,0.06450844944931634,0.9979171608653922
668,-0.2170715332,-0.3351952732,1.2900083070000001,-0.0690041557,0.08242500067000001,-0.01767499983,-0.2595249987,-1.077999994,-8.839600098,-0.7350000292000001,-0.07243480016176186,-0.9973731496914912,0.04302223300453075,0.99907411510223
669,-0.2086341232,-0.334428221,1.401318789,-0.01036526449,0.10272499800000001,-0.03045000017,-0.267050004,-1.4895999519999998,-9.329600215,-0.8525999755,-0.048313379525507384,-0.9988322268323265,0.021516097436222258,0.9997685019798909
670,-0.202497825,-0.3348117471,1.3602881430000002,-0.02161866613,0.10272499800000001,-0.03045000017,-0.267050004,-1.4895999519999998,-9.329600215,-0.8525999755,-0.02416374523613254,-0.9997080140801929,6.123233995736766e-17,1.0
671,-0.19521097839999998,-0.334428221,1.389653206,0.0005617532879,0.1144499993,-0.0453249985,-0.2519999933,-1.538600051,-9.172799897,-1.1172000009999998,-1.8369701987210297e-16,-1.0,-0.021516097436222133,0.9997685019798909
672,-0.1871570796,-0.334428221,1.461700559,-0.0009915923001,0.1144499993,-0.0453249985,-0.2519999933,-1.538600051,-9.172799897,-1.1172000009999998,0.024163745236132173,-0.9997080140801929,-0.04302223300453018,0.99907411510223
673,-0.1814043075,-0.3348117471,1.391798019,-0.01878874935,0.1144499993,-0.066674999,-0.2723000073,-1.567999965,-9.388400042,-1.175999974,0.04831337952550702,-0.9988322268323266,-0.06450844944931623,0.9979171608653922
674,-0.1752680093,-0.334428221,1.3485738040000002,0.0063008032739999996,0.1144499993,-0.066674999,-0.2723000073,-1.567999965,-9.388400042,-1.175999974,0.07243480016176239,-0.9973731496914912,-0.0859647987374464,0.9962981749346078
675,-0.1672141105,-0.334428221,1.3389751909999998,-0.0032751448450000003,0.1251250017,-0.08592499732999999,-0.273349998,-1.470000058,-9.65300014,-1.009400001,0.0965139209145152,-0.9953316347176486,-0.10738134666416274,0.994217906893952
676,-0.1633789241,-0.3332776725,1.25673461,0.058907903729999996,0.1251250017,-0.08592499732999999,-0.273349998,-1.470000058,-9.65300014,-1.009400001,0.12053668025532321,-0.992708874098054,-0.1287481774525805,0.9916773198992901
677,-0.1568591148,-0.334428221,1.266621351,-0.012400075790000001,0.1315999997,-0.1254750013,-0.2519999933,-1.607200044,-9.545199776,-1.23480002,0.1444890495692215,-0.9895063994510511,-0.1500553983446526,0.9886775902323404
678,-0.1514898539,-0.334428221,1.225945234,-0.0145046562,0.1315999997,-0.1254750013,-0.2519999933,-1.607200044,-9.545199776,-1.23480002,0.16835704134703883,-0.9857260809316508,-0.1712931441814775,0.9852201067560606
679,-0.1465041041,-0.3332776725,1.172929406,0.04507066309,0.148574996,-0.16485000130000002,-0.2477999973,-1.558199945,-9.486399948999999,-1.372000006,0.19212671735370784,-0.9813701261394135,-0.19245158197082984,0.9813064702716093
680,-0.1419018805,-0.3328941464,1.11686337,0.06133726984,0.148574996,-0.16485000130000002,-0.2477999973,-1.558199945,-9.486399948999999,-1.372000006,0.21578419676780655,-0.976441078829272,-0.21352091543979573,0.9769384927771817
681,-0.1380666941,-0.3332776725,1.022610426,0.0289489422,0.1763999987,-0.20964999199999998,-0.2423750067,-1.440599999,-9.447199869,-1.293599993,0.23931566428755824,-0.9709418174260519,-0.23449138957040966,0.9721181966290613
682,-0.1338479966,-0.3332776725,0.9781538248,0.027155011889999997,0.1763999987,-0.20964999199999998,-0.2423750067,-1.440599999,-9.447199869,-1.293599993,0.26270737819858747,-0.9648755533435514,-0.25535329511618693,0.9668478136052776
683,-0.1307798475,-0.3336611986,0.8751927614,0.008429329842,0.20737500670000003,-0.2567250013,-0.2637249947,-1.264199933,-9.378600168,-1.1857999940000001,0.285945678398689,-0.9582458291091662,-0.2760969730974685,0.9611297838723009
684,-0.1261776239,-0.3336611986,0.8757140040000001,0.008359905332,0.20737500670000003,-0.2567250013,-0.2637249947,-1.264199933,-9.378600168,-1.1857999940000001,0.30901699437494723,-0.9510565162951536,-0.2967128192734899,0.9549667548552553
685,-0.12272595609999999,-0.3351952732,0.8222041726,-0.08199933171,0.22014999870000002,-0.2919000053,-0.2766750073,-1.2054000329999999,-9.084599864,-1.136799967,0.33190785312852833,-0.9433118132577432,-0.3171912885891059,0.9483615800121716
686,-0.1188907698,-0.3340446949,0.8075429201000001,-0.0049343816940000005,0.22014999870000002,-0.2919000053,-0.2766750073,-1.2054000329999999,-9.084599864,-1.136799967,0.35460488704253557,-0.9350162426854148,-0.3375228995941132,0.9413173175128471
687,-0.1127544716,-0.3332776725,0.9234921336,0.04162759334,0.231875,-0.3163999987,-0.3128999853,-0.8623999953,-9.094399738,-0.882000035,0.37709484168832047,-0.9261746489577765,-0.35769823883312557,0.9338372288229252
688,-0.1100698411,-0.3355787694,0.8302821517,-0.08385648578,0.231875,-0.3163999987,-0.3128999853,-0.8623999953,-9.094399738,-0.882000035,0.39936458356569565,-0.9167921953165824,-0.37770796520396455,0.9259247771938499
689,-0.1050840989,-0.33596229549999995,0.8728428483,-0.08167930692000001,0.225400002,-0.32392500399999996,-0.38009998799999994,-0.7545999959,-8.790600145,-0.4214000143,0.42140110777252926,-0.9068743608505454,-0.3975428142825558,0.9175836260593938
690,-0.09933131933,-0.3367293477,0.9447453022,-0.09567946941,0.225400002,-0.32392500399999996,-0.38009998799999994,-0.7545999959,-8.790600145,-0.4214000143,0.4431915455992415,-0.8964269372957037,-0.4171936026123167,0.9088176373395029
691,-0.09396205842000001,-0.34018099310000005,0.9849738479000001,-0.2571392953,0.1933750033,-0.32077499870000004,-0.4697000027,-0.6566000164,-8.653400159,-0.1568000074,0.4647231720437688,-0.8854560256532098,-0.43665123195606353,0.8996308696522435
692,-0.08897631615,-0.34324914219999997,0.9784415959999999,-0.3517455757,0.1933750033,-0.32077499870000004,-0.4697000027,-0.6566000164,-8.653400159,-0.1568000074,0.48598341324260635,-0.8739680326265178,-0.4559066935084587,0.8900275764346768
693,-0.08092242478999999,-0.34900194409999996,1.1392478940000001,-0.5510051847,0.1592500067,-0.306775012,-0.525175004,-0.5683999836,-9.182599771,-0.2057999972,0.5069598538135908,-0.8619696668800491,-0.47495107206704995,0.8800122039735357
694,-0.07478612661,-0.3555217385,1.15032196,-0.7574620843000001,0.1592500067,-0.306775012,-0.525175004,-0.5683999836,-9.50600028,0.048999998899999994,0.5276402441061323,-0.8494679351215213,-0.4937755501599771,0.8695893893466111
695,-0.06289704889,-0.36395916340000006,1.339285016,-0.9147679209999999,0.1326499987,-0.2630249953,-0.502774992,-0.6761999831000001,-9.50600028,0.048999998899999994,0.5480125073546697,-0.836470138010227,-0.5123714121284235,0.858763958275803
696,-0.05944538489,-0.368177861,1.31153667,-0.9943834543000001,0.1326499987,-0.2630249953,-0.502774992,-0.6761999831000001,-9.50600028,0.048999998899999994,0.5680647467311563,-0.8229838658936561,-0.5307300481619331,0.8475409228928312
697,-0.04870686308,-0.3754647076,1.462175131,-1.113685966,0.108149997,-0.21927499530000003,-0.5347999907,-0.24500000370000002,-9.50600028,-0.1274000026,0.5877852522924737,-0.809016994374947,-0.5488429582847189,0.8359254794186372
698,-0.0425705649,-0.3835186064,1.4036579130000002,-1.243430853,0.108149997,-0.21927499530000003,-0.5347999907,-0.24500000370000002,-9.50600028,-0.1274000026,0.6071625078187111,-0.7945776797137544,-0.5667017562911174,0.8239230057575544
699,-0.03490019217,-0.39080545310000003,1.433230519,-1.2977046970000001,0.07069999933,-0.186200006,-0.594649992,0.1568000074,-9.643200266000001,-0.6075999901,0.6261851975383136,-0.7796743540632225,-0.5842981736283681,0.8115390590073612
700,-0.02646278404,-0.39732527729999995,1.5090036390000001,-1.2904976609999999,0.07069999933,-0.186200006,-0.594649992,0.1568000074,-9.643200266000001,-0.6075999901,0.6448422127361706,-0.7643157205458483,-0.6016240632249223,0.798779372886365
701,-0.01955944858,-0.40461212399999996,1.475152016,-1.3245304820000001,0.053724998829999995,-0.1777999973,-0.578550024,0.1568000074,-9.868599701,-0.8722000152,0.6631226582407952,-0.7485107481711011,-0.618671403262503,0.7856498550787147
702,-0.01112203952,-0.4115154743,1.532765269,-1.265162468,0.053724998829999995,-0.1777999973,-0.578550024,0.1568000074,-9.868599701,-0.8722000152,0.6810158587867972,-0.7322686665977735,-0.6354323008901773,0.7721565844991644
703,-0.004602223169,-0.41650119420000004,1.478911996,-1.194704413,0.024849999249999997,-0.1798999953,-0.6383999920000001,0.45080000090000005,-9.8,-1.528800032,0.6985113652489371,-0.7155989607441209,-0.6518989958787125,0.7583058084785625
704,0.0030681488569999998,-0.4207199216,1.495034456,-1.098821759,0.024849999249999997,-0.1798999953,-0.6383999920000001,0.45080000090000005,-9.8,-1.528800032,0.7155989607441207,-0.6985113652489374,-0.6680638642135333,0.7441039398713608
705,0.009587964974,-0.42532214520000006,1.447685122,-1.052204967,0.030100000499999998,-0.199150002,-0.6394500160000001,0.3136000149,-10.16259942,-1.372000006,0.7322686665977738,-0.6810158587867969,-0.6839194216246103,0.7295575540864878
706,0.01725833677,-0.4299243689,1.4746016259999999,-1.021839142,0.030100000499999998,-0.199150002,-0.6394500160000001,0.3136000149,-10.16259942,-1.372000006,0.7485107481711013,-0.6631226582407949,-0.6994583270516469,0.7146733860429612
707,0.02339463495,-0.4337595403,1.4063504930000001,-0.9562572240999999,0.01732500017,-0.22364999530000002,-0.6394500160000001,0.5683999836,-9.966599607000001,-1.7933999840000001,0.7643157205458486,-0.6448422127361703,-0.7146733860429607,0.6994583270516475
708,0.029914451760000006,-0.4352936149,1.36422801,-0.7868670225,0.01732500017,-0.22364999530000002,-0.6394500160000001,0.5683999836,-9.966599607000001,-1.7933999840000001,0.7796743540632227,-0.6261851975383133,-0.7295575540864874,0.6839194216246107
709,0.0383518599,-0.4372112155,1.4494225980000002,-0.6785616279000001,0.01102499992,-0.2673999953,-0.637349968,0.5096000104999999,-9.751000047,-1.617000064,0.7945776797137541,-0.6071625078187114,-0.7441039398713604,0.6680638642135338
710,0.04448815808,-0.44104638700000004,1.3909937140000002,-0.6968992948999999,0.01102499992,-0.2673999953,-0.637349968,0.5096000104999999,-9.751000047,-1.617000064,0.8090169943749473,-0.5877852522924732,-0.7583058084785623,0.6518989958787127
711,0.05254204944,-0.44373103979999995,1.442627668,-0.6585921645,-0.014699999540000001,-0.3174499893,-0.6928250026999999,0.7644000157999999,-9.93720057,-1.8914000359999998,0.8229838658936564,-0.5680647467311559,-0.7721565844991642,0.6354323008901774
712,0.05982890352999999,-0.4452651143,1.4466446640000001,-0.5736267567000001,-0.014699999540000001,-0.3174499893,-0.6928250026999999,0.7644000157999999,-9.93720057,-1.8914000359999998,0.8364701380102272,-0.5480125073546693,-0.7856498550787142,0.6186714032625036
713,0.06749927253,-0.44679918890000003,1.463885307,-0.5033445954,-0.008224999979,-0.3611999893,-0.6426000214,0.3626000047,-10.20180008,-1.597400025,0.8494679351215211,-0.5276402441061327,-0.7987793728863647,0.6016240632249229
714,0.07516964525,-0.4491002858,1.483888984,-0.49729648229999995,-0.008224999979,-0.3611999893,-0.6426000214,0.3626000047,-10.20180008,-1.597400025,0.8619696668800493,-0.5069598538135903,-0.8115390590073609,0.5842981736283687
715,0.08399057388,-0.45178490880000005,1.470761061,-0.490277946,-0.02432499975,-0.38360000130000005,-0.6191500187,1.0878000140000001,-9.839199495,-1.332800072,0.873968032626518,-0.48598341324260597,-0.823923005757554,0.566701756291118
716,0.09127742797,-0.452935487,1.549877763,-0.43671202659999997,-0.02432499975,-0.38360000130000005,-0.6191500187,1.0878000140000001,-9.839199495,-1.332800072,0.88545602565321,-0.46472317204376834,-0.8359254794186368,0.5488429582847194
717,0.09741372615,-0.4552365839,1.471160412,-0.4246796668,-0.02432499975,-0.4145750093,-0.5678750134,0.6369999766,-10.69179962,-0.8623999953,0.8964269372957039,-0.44319154559924107,-0.8475409228928309,0.5307300481619337
718,0.1043170616,-0.45677065850000004,1.45363307,-0.3889635205,-0.02432499975,-0.4145750093,-0.5678750134,0.6369999766,-10.69179962,-0.8623999953,0.9068743608505456,-0.4214011077725288,-0.8587639582758029,0.5123714121284237
719,0.1108368784,-0.4571541846,1.419900775,-0.30478763579999996,-0.004025000073,-0.40722500799999994,-0.47827499869999995,1.0192000209999998,-10.4957998,-0.5389999971,0.9167921953165822,-0.399364583565696,-0.869589389346611,0.49377555015997726
720,0.1173566952,-0.45830473299999996,1.392056465,-0.2878594995,-0.004025000073,-0.40722500799999994,-0.47827499869999995,1.0192000209999998,-10.4957998,-0.5389999971,0.9261746489577763,-0.3770948416883208,-0.8800122039735355,0.4749510720670505
721,0.1223424375,-0.4590717852,1.2939794059999998,-0.2508665025,0.006649999917,-0.40722500799999994,-0.4100250053,1.2054000329999999,-10.78000023,-0.1568000074,0.935016242685415,-0.3546048870425351,-0.8900275764346767,0.4559066935084588
722,0.129245773,-0.4571541846,1.319647312,-0.08751465380000001,0.006649999917,-0.40722500799999994,-0.4100250053,1.2054000329999999,-10.78000023,-0.1568000074,0.9433118132577433,-0.3319078531285279,-0.8996308696522433,0.4366512319560641
