,leftJointPosition,rightJointPosition,leftJointVelocity,rightJointVelocity,imuGyroX,imuGyroY,imuGyroZ,imuAccX,imuAccY,imuAccZ,leftGaitPhaseX,leftGaitPhaseY,rightGaitPhaseX,rightGaitPhaseY
217,-0.5112302899,0.02838037722,1.087524772,0.4383122623,0.292949996,0.6539749813,-0.4138749933,-2.685199893,-15.67019978,-1.499399972,-0.9893433680751103,0.14560116773500478,1.0,-2.4492935982947064e-16
218,-0.508929193,0.02684630267,1.035320044,0.2783329785,0.292949996,0.6539749813,-0.4138749933,-2.685199893,-15.67019978,-1.499399972,-0.9925955354920264,0.1214664683000926,1.0,0.0
219,-0.5077786446,0.02531222813,0.8243698478,0.12077571449999999,0.4616499853,0.5867749785999999,-0.2261000013,-2.0089999819999997,-14.36679962,-1.6856000569999998,-0.9952590338932358,0.09725973192386916,0.9997080140801929,0.02416374523613229
220,-0.5058610439,0.02454519086,0.7465515733,0.04544237256,0.4616499853,0.5867749785999999,-0.2261000013,-2.0089999819999997,-14.36679962,-1.6856000569999998,-0.9973322836635516,0.072995314660908,0.9988322268323266,0.04831337952550707
221,-0.5031763911,0.021477041769999997,0.6665326357,-0.1417688131,0.576799984,0.5696249865999999,-0.1216249967,-2.048200062,-11.61299944,-0.9016000018000001,-0.998814055240823,0.048687606774025394,0.9973731496914912,0.07243480016176237
222,-0.5020258427000001,0.01879241131,0.5527272224,-0.2555078864,0.576799984,0.5696249865999999,-0.1216249967,-2.048200062,-11.61299944,-0.9016000018000001,-0.9997034698451394,0.02435102419998979,0.9953316347176486,0.09651392091451512
223,-0.4989576936,0.01687481813,0.576285243,-0.29544842239999997,0.5853750134000001,0.5867749785999999,-0.05652500033,-2.3324000540000003,-9.398199916,-0.4214000143,-1.0,1.2246467991473532e-16,0.992708874098054,0.12053668025532306
224,-0.49588954450000006,0.01725833677,0.5933709741,-0.2026002705,0.5853750134000001,0.5867749785999999,-0.05652500033,-2.3324000540000003,-9.398199916,-0.4214000143,-0.9997034698451394,-0.024351024199989548,0.9895063994510511,0.14448904956922135
225,-0.4943554699,0.01725833677,0.5106025934,-0.1395796984,0.5138000107,0.6167000294,-0.08627499699999999,-2.802800131,-8.379000187,0.08819999619999999,-0.998814055240823,-0.048687606774025144,0.9857260809316509,0.16835704134703855
226,-0.49397197369999996,0.015724262219999997,0.3975343704,-0.1728807092,0.5138000107,0.6167000294,-0.08627499699999999,-2.802800131,-8.379000187,0.08819999619999999,-0.9973322836635516,-0.07299531466090775,0.9813701261394134,0.1921267173537084
227,-0.49128732090000005,0.014573707250000002,0.4354761839,-0.183091253,0.4145750093,0.6177499865999999,-0.1588999987,-3.038000023,-11.44639983,0.38220000789999997,-0.9952590338932358,-0.09725973192386891,0.9764410788292721,0.21578419676780614
228,-0.48936975,0.01419018861,0.4146268666,-0.1491330266,0.4145750093,0.6177499865999999,-0.1588999987,-3.038000023,-11.44639983,0.38220000789999997,-0.9925955354920264,-0.12146646830009236,0.970941817426052,0.23931566428755777
229,-0.4859180748,0.01188907679,0.4860634506,-0.23396286370000002,0.2619750047,0.524824996,-0.081025002,-4.38059997,-11.71100051,0.43119999770000006,-0.9893433680751101,-0.145601167735005,0.9648755533435515,0.2627073781985869
230,-0.4801653028,0.01073852088,0.651658237,-0.2230723649,0.2619750047,0.524824996,-0.081025002,-4.38059997,-11.71100051,0.43119999770000006,-0.9855044603739027,-0.16964951689628496,0.9582458291091662,0.2859456783986893
231,-0.4740290046,0.0061362977139999995,0.79185009,-0.4077880979,0.1340499973,0.44169999600000004,-0.128974998,-4.008200091,-11.49539979,-0.6272000298,-0.9810810890921944,-0.19359725366252947,0.9510565162951535,0.3090169943749474
232,-0.4655915797,0.0003835186071,1.015063405,-0.6113400459,0.1340499973,0.44169999600000004,-0.128974998,-4.008200091,-11.49539979,-0.6272000298,-0.9760758775559273,-0.21743017558155658,0.9433118132577432,0.33190785312852844
233,-0.4575377107,-0.00651981635,1.174191236,-0.8110214472,-0.0005249999883000001,0.4362750053,-0.17919999600000003,-3.8611999389999996,-13.37700009,-0.6272000298,-0.9704917941574054,-0.24113414829331054,0.9350162426854148,0.3546048870425356
234,-0.4494838119,-0.0164912995,1.2959162,-1.123440623,-0.0005249999883000001,0.4362750053,-0.17919999600000003,-3.8611999389999996,-13.37700009,-0.6272000298,-0.9643321505948587,-0.2646951139123933,0.9261746489577765,0.37709484168832047
235,-0.444114536,-0.02722982131,1.2421984670000001,-1.400345445,-0.09117500066999999,0.48212498659999997,-0.012775000330000001,-4.488400042,-12.9163996,-0.9995999812999999,-0.9576005999084061,-0.2880990993652371,0.9167921953165824,0.39936458356569554
236,-0.436060667,-0.04602223262,1.143083215,-1.692386508,-0.09117500066999999,0.48212498659999997,-0.012775000330000001,-4.488400042,-12.9163996,-0.9995999812999999,-0.9503011343135825,-0.31133222467698135,0.9068743608505454,0.4214011077725291
237,-0.4329925179,-0.05100797489,1.185264826,-1.783563852,-0.10185000300000001,0.5099499893,0.09712500333999999,-3.714200079,-11.84819992,-0.9309999883,-0.9424380828337146,-0.33438071120313245,0.8964269372957038,0.44319154559924134
238,-0.42877379060000004,-0.06213001534,1.10798049,-1.898835421,-0.10185000300000001,0.5099499893,0.09712500333999999,-3.714200079,-11.84819992,-0.9309999883,-0.934016108732548,-0.35723088980113266,0.8854560256532099,0.46472317204376856
239,-0.424171567,-0.07440260798,1.058641553,-2.045309305,-0.08259999633,0.49612500670000004,0.1526000047,-3.4692000210000002,-10.53500047,-1.21519998,-0.9250402067486521,-0.3798692089369854,0.873968032626518,0.4859834132426061
240,-0.4195693433,-0.08552464843,1.020556808,-2.0984437469999997,-0.08259999633,0.49612500670000004,0.1526000047,-3.4692000210000002,-10.53500047,-1.21519998,-0.9155157001332371,-0.4022822427221324,0.8619696668800492,0.5069598538135904
241,-0.4138165712,-0.09587965161,1.058629632,-2.0953269,-0.060200000999999996,0.451325016,0.13125,-2.792999965,-9.574599981,-1.8914000359999998,-0.9054482374931467,-0.4244566988758149,0.8494679351215211,0.5276402441061327
242,-0.4115154743,-0.1066181734,0.9114288688,-2.111698389,-0.060200000999999996,0.451325016,0.13125,-2.792999965,-9.574599981,-1.8914000359999998,-0.8948437894408919,-0.44637942660819924,0.8364701380102267,0.54801250735467
243,-0.4099813998,-0.1173566952,0.7485304475,-2.117665768,-0.03569999933,0.41072498799999996,0.05670000017000001,-2.302999994,-9.995999813,-2.126599929,-0.8837086450537192,-0.4680374244195861,0.8229838658936564,0.5680647467311558
244,-0.40307804939999997,-0.1277116984,0.9135948420000001,-2.0976753230000003,-0.03569999933,0.41072498799999996,0.05670000017000001,-2.302999994,-9.995999813,-2.126599929,-0.8720494081438076,-0.4894178478110856,0.8090169943749475,0.5877852522924731
245,-0.40039342640000003,-0.1388337314,0.8149604201,-2.122338533,-0.08049999833,0.3424749947,0.0875,-2.479399914,-9.065000117,-2.841999918,-0.85987299334181,-0.5105080169021792,0.7945776797137543,0.6071625078187113
246,-0.3927230537,-0.1511063278,0.9981181621999999,-2.208691359,-0.08049999833,0.3424749947,0.0875,-2.479399914,-9.065000117,-2.841999918,-0.8471866219960607,-0.5312954239506528,0.7796743540632224,0.6261851975383137
247,-0.3858197331,-0.1614613384,1.116574287,-2.174970627,-0.1231999993,0.2719499993,0.008575000167,-1.724799991,-9.123799944,-2.96940003,-0.8339978178898781,-0.5517677407704455,0.7643157205458483,0.6448422127361707
248,-0.3804504573,-0.1733504087,1.113891959,-2.226158381,-0.1231999993,0.2719499993,0.008575000167,-1.724799991,-9.123799944,-2.96940003,-0.8203144027795111,-0.5719128260430028,0.7485107481711011,0.6631226582407952
249,-0.37239655850000003,-0.1844724566,1.255624413,-2.2229521269999997,-0.1680000067,0.20580000399999998,-0.03622499883,-1.7933999840000001,-9.339400089,-2.59699986,-0.8061444917553628,-0.5917187325178135,0.7322686665977736,0.6810158587867972
250,-0.36549323799999994,-0.1955944896,1.3009369370000001,-2.221770048,-0.1680000067,0.20580000399999998,-0.03622499883,-1.7933999840000001,-9.339400089,-2.59699986,-0.7914964884292544,-0.6111737140978489,0.7155989607441211,0.698511365248937
251,-0.35743933920000004,-0.20633301140000002,1.3796387909999999,-2.203890324,-0.201074996,0.1417500067,-0.0607250005,-1.901200056,-9.398199916,-2.077599975,-0.7763790799505745,-0.6302662328057084,0.6985113652489371,0.7155989607441209
252,-0.348618418,-0.2163044959,1.494094253,-2.152336121,-0.201074996,0.1417500067,-0.0607250005,-1.901200056,-9.398199916,-2.077599975,-0.7608012318542782,-0.6489849656263332,0.6810158587867972,0.7322686665977735
253,-0.3417150676,-0.2270430177,1.475144744,-2.149928331,-0.229950006,0.07770000099999999,-0.0607250005,-1.813000023,-9.594199729,-2.116800055,-0.744772182743782,-0.6673188112222392,0.6631226582407952,0.7485107481711012
254,-0.334428221,-0.2385485768,1.4726437330000002,-2.083319187,-0.229950006,0.07770000099999999,-0.0607250005,-1.813000023,-9.594199729,-2.116800055,-0.728301438811916,-0.6852568965172792,0.6448422127361707,0.7643157205458483
255,-0.3263743222,-0.24736949800000002,1.5148564580000001,-2.1167492869999998,-0.249024992,0.0169750005,-0.03307499975,-1.979600069,-9.535399902,-1.724799991,-0.7113987682031778,-0.7027885831450318,0.6261851975383138,0.7796743540632223
256,-0.3164028525,-0.24736949800000002,1.339544654,-2.1167492869999998,-0.249024992,0.0169750005,-0.03307499975,-1.979600069,-9.535399902,-1.724799991,-0.6940741952206341,-0.7199034737579957,0.6071625078187113,0.7945776797137543
257,-0.3129511774,-0.2661619186,1.3818569180000002,-1.919885635,-0.2565499973,-0.03430000067,-0.01172500029,-1.783599964,-9.662800014,-1.6267999380000002,-0.676337994380903,-0.7365914181938434,0.5877852522924731,0.8090169943749475
258,-0.3083489537,-0.275749892,1.335764885,-1.926416397,-0.2565499973,-0.03430000067,-0.01172500029,-1.783599964,-9.662800014,-1.6267999380000002,-0.6582006843207482,-0.7528425194950793,0.5680647467311558,0.8229838658936564
259,-0.3014456332,-0.283803761,1.357287765,-1.848266721,-0.2619750047,-0.08977500199999999,0.032025000750000004,-1.92079995,-9.437399995,-1.6267999380000002,-0.6396730215588916,-0.7686471397785317,0.5480125073546701,0.8364701380102266
260,-0.2964598835,-0.2922411859,1.2786917690000001,-1.8055851459999999,-0.2619750047,-0.08977500199999999,0.032025000750000004,-1.92079995,-9.437399995,-1.6267999380000002,-0.6207659941167487,-0.7839959059512012,0.5276402441061329,0.849467935121521
261,-0.2903235853,-0.2995280325,1.2762670520000001,-1.7176136969999998,-0.2661750007,-0.127050004,0.049174999000000004,-1.813000023,-9.133599817999999,-1.342599946,-0.6014908150018705,-0.798879715269067,0.5069598538135904,0.8619696668800492
262,-0.2861048877,-0.3068148792,1.176435113,-1.643241525,-0.2661750007,-0.127050004,0.049174999000000004,-1.813000023,-9.133599817999999,-1.342599946,-0.5818589155579529,-0.8132897407355653,0.4859834132426061,0.873968032626518
263,-0.2815026641,-0.3137182295,1.111433625,-1.566692948,-0.273700006,-0.1623999953,0.05670000017000001,-1.411199939,-9.192400229,-1.479799932,-0.5618819386853612,-0.8272174363365294,0.4647231720437686,0.8854560256532099
264,-0.2761333883,-0.3213886023,1.107803226,-1.5657807590000001,-0.273700006,-0.1623999953,0.05670000017000001,-1.411199939,-9.192400229,-1.479799932,-0.5415717319361851,-0.8406545421084934,0.44319154559924134,0.8964269372957038
265,-0.2707641423,-0.3267578483,1.1064713,-1.446163774,-0.275800004,-0.1762249947,0.0651000005,-1.6365999580000001,-9.133599817999999,-1.430799979,-0.5209403404879308,-0.8535930890373462,0.42140110777252904,0.9068743608505455
266,-0.26654544469999997,-0.3325106204,1.035818696,-1.3712841269999998,-0.275800004,-0.1762249947,0.0651000005,-1.6365999580000001,-9.133599817999999,-1.430799979,-0.5000000000000004,-0.8660254037844384,0.39936458356569543,0.9167921953165825
267,-0.26232671739999996,-0.3378798962,0.9715271592,-1.293305755,-0.27142500399999997,-0.1783249927,0.05670000017000001,-1.7933999840000001,-9.00620029,-1.323000053,-0.4787631293572094,-0.8779441132373358,0.37709484168832047,0.9261746489577765
268,-0.2577244937,-0.34209859369999995,0.9496511220999999,-1.16772902,-0.27142500399999997,-0.1783249927,0.05670000017000001,-1.7933999840000001,-9.00620029,-1.323000053,-0.4572423233046387,-0.8893421488825188,0.35460488704253557,0.9350162426854148
269,-0.2535057962,-0.34708434340000005,0.9190791845,-1.11816752,-0.2651249933,-0.17184999469999998,0.02887499958,-1.75420005,-9.00620029,-1.009400001,-0.43545034497819135,-0.9002127509974374,0.33190785312852833,0.9433118132577432
270,-0.24813653530000002,-0.3505360186,0.9517011642000001,-1.005197883,-0.2651249933,-0.17184999469999998,0.02887499958,-1.75420005,-9.00620029,-1.009400001,-0.41340011833528295,-0.9105494726594344,0.30901699437494745,0.9510565162951535
271,-0.24315080050000001,-0.3547547162,0.9665420651000001,-0.9616058469,-0.2544499993,-0.1676499987,0.01295000017,-1.675800037,-8.96700021,-1.058400027,-0.3911047204901559,-0.9203461835691595,0.28594567839868923,0.9582458291091662
272,-0.2385485768,-0.35743933920000004,0.9587500095,-0.8487304448999999,-0.2544499993,-0.1676499987,0.01295000017,-1.675800037,-8.96700021,-1.058400027,-0.3685773739583615,-0.9295970736862064,0.26270737819858686,0.9648755533435515
273,-0.2339463532,-0.3616580367,0.9572460651000001,-0.8401289581999999,-0.22242500070000001,-0.1590750027,0.001225000005,-1.607200044,-8.751400065,-1.058400027,-0.34583143881501194,-0.9382966566748165,0.2393156642875576,0.970941817426052
274,-0.2293441296,-0.3658767641,0.9486177564,-0.8029395342,-0.22242500070000001,-0.1590750027,0.001225000005,-1.607200044,-8.751400065,-1.058400027,-0.3228804047714466,-0.9464397731576092,0.21578419676780614,0.9764410788292721
275,-0.2251254171,-0.3677943349,0.9182516336,-0.7385987639,-0.18392500399999998,-0.1410500073,0.0033249999579999996,-1.567999965,-8.770999813,-0.9408000082,-0.2997378831750246,-0.9540215937754005,0.19212671735370854,0.9813701261394134
276,-0.2251254171,-0.3677943349,0.9182516336,-0.7385987639,-0.18392500399999998,-0.1410500073,0.0033249999579999996,-1.567999965,-8.770999813,-0.9408000082,-0.2764175989367716,-0.9610376220513066,0.1683570413470384,0.9857260809316509
277,-0.2147704214,-0.3735471368,0.8821502924,-0.5912812947999999,-0.1434999967,-0.1249499977,-0.02765000075,-1.342599946,-8.829800224,-1.0192000209999998,-0.2529333823916808,-0.9674836970574252,0.14448904956922112,0.9895063994510511
278,-0.210935235,-0.3754647076,0.9561305045999999,-0.5527524948,-0.1434999967,-0.1249499977,-0.02765000075,-1.342599946,-8.829800224,-1.0192000209999998,-0.22929916109649082,-0.9733559958825165,0.120536680255323,0.992708874098054
279,-0.2071000487,-0.37853285670000003,0.9072188139,-0.5602546334,-0.10290000199999999,-0.1207500017,-0.02345000058,-1.460200039,-8.692600237999999,-0.882000035,-0.20552895156980128,-0.978651035899221,0.09651392091451522,0.9953316347176486
280,-0.20211429890000002,-0.379683435,0.9293439388,-0.4707144201,-0.10290000199999999,-0.1207500017,-0.02345000058,-1.460200039,-8.692600237999999,-0.882000035,-0.18163685097943705,-0.983365676829466,0.0724348001617624,0.9973731496914912
281,-0.19904614980000002,-0.3816010058,0.8365399837,-0.4642732739,-0.07630000234,-0.1228499997,-0.07139999866,-0.9800000146,-8.810199893,-1.028999968,-0.15763702878197416,-0.9874971226068413,0.048313379525507044,0.9988322268323266
282,-0.1936769038,-0.385052681,0.8830615878,-0.51034832,-0.07630000234,-0.1228499997,-0.07139999866,-0.9800000146,-8.810199893,-1.028999968,-0.13354371831939832,-0.9910429230348347,0.024163745236132197,0.9997080140801929
283,-0.1867735684,-0.3858197331,1.013025165,-0.4179402292,-0.059150002,-0.131425004,-0.0607250005,-1.342599946,-8.692600237999999,-1.0878000140000001,-0.10937120837787465,-0.9940009752399459,6.123233995736766e-17,1.0
284,-0.1825548559,-0.38620322939999996,0.983206749,-0.32936277989999996,-0.059150002,-0.131425004,-0.0607250005,-1.342599946,-8.692600237999999,-1.0878000140000001,-0.08513383471363581,-0.9963695249188181,-0.024163745236132073,0.9997080140801929
285,-0.1791031957,-0.3839021325,0.894767642,-0.11901298169999999,-0.02817500025,-0.134575001,-0.10657500269999999,-1.1172000009999998,-8.271199822,-1.12700002,-0.06084597155101394,-0.9981471673786452,-0.04831337952550714,0.9988322268323265
286,-0.1733504087,-0.38428565859999997,0.9560727477,-0.09570960700999999,-0.02817500025,-0.134575001,-0.10657500269999999,-1.1172000009999998,-8.271199822,-1.12700002,-0.036522023057658747,-0.9993328483702394,-0.07243480016176229,0.9973731496914912
287,-0.1691317111,-0.3827515841,0.9183157681999999,0.01238418929,-0.008924999833,-0.1676499987,-0.157850008,-1.1172000009999998,-8.575,-1.372000006,-0.012176414801997331,-0.9999258647132645,-0.0965139209145151,0.9953316347176486
288,-0.1633789241,-0.38236805799999996,0.9818344116,0.04138906673,-0.008924999833,-0.1676499987,-0.157850008,-1.1172000009999998,-8.575,-1.372000006,0.012176414801996964,-0.9999258647132645,-0.12053668025532334,0.992708874098054
289,-0.1583931893,-0.3819845319,0.9799103737,0.06938938797000001,0.002799999937,-0.1931999993,-0.16852500199999998,-1.195600013,-8.898399925,-1.538600051,0.036522023057658386,-0.9993328483702394,-0.14448904956922146,0.9895063994510511
290,-0.1545580029,-0.3835186064,0.9129958748999999,-0.02087072097,0.002799999937,-0.1931999993,-0.16852500199999998,-1.195600013,-8.898399925,-1.538600051,0.06084597155101358,-0.9981471673786453,-0.16835704134703852,0.9857260809316509
291,-0.1476546675,-0.38236805799999996,1.0390115979999999,0.04526311159,0.01557499975,-0.221025002,-0.1513749933,-1.372000006,-9.094399738,-1.332800072,0.08513383471363545,-0.9963695249188181,-0.19212671735370843,0.9813701261394134
292,-0.1438194811,-0.3831350803,0.9710777998000001,-0.002226827666,0.01557499975,-0.221025002,-0.1513749933,-1.372000006,-9.094399738,-1.332800072,0.10937120837787428,-0.9940009752399459,-0.21578419676780602,0.9764410788292721
293,-0.1388337314,-0.3835186064,0.9804427028,-0.03411431611,0.02414999992,-0.254100008,-0.164325006,-1.077999994,-9.388400042,-1.323000053,0.13354371831939796,-0.9910429230348347,-0.23931566428755793,0.970941817426052
294,-0.1330809593,-0.3819845319,1.020156384,0.05114988238,0.02414999992,-0.254100008,-0.164325006,-1.077999994,-9.388400042,-1.323000053,0.1576370287819738,-0.9874971226068414,-0.2627073781985869,0.9648755533435515
295,-0.1284787357,-0.38236805799999996,1.001543641,0.01719223335,0.0465500015,-0.2913749933,-0.1547000027,-1.068199974,-9.437399995,-1.440599999,0.1816368509794358,-0.9833656768294663,-0.2859456783986891,0.9582458291091662
296,-0.1284787357,-0.38236805799999996,1.001543641,0.01719223335,0.0465500015,-0.2913749933,-0.1547000027,-1.068199974,-9.437399995,-1.440599999,0.20552895156980003,-0.9786510358992212,-0.30901699437494756,0.9510565162951535
297,-0.11850725109999999,-0.379683435,0.8896430135,0.1347967982,0.067900002,-0.32987500670000003,-0.16957499269999998,-1.156400007,-9.163000023,-1.420999959,0.2292991610964896,-0.9733559958825169,-0.33190785312852866,0.943311813257743
298,-0.1139050275,-0.38006693119999996,0.9909260869,0.09204609692,0.067900002,-0.32987500670000003,-0.16957499269999998,-1.156400007,-9.163000023,-1.420999959,0.25293338239168045,-0.9674836970574253,-0.3546048870425357,0.9350162426854148
299,-0.1104533598,-0.37814936039999997,0.8985343575,0.1639100164,0.08487499832999999,-0.37887499329999996,-0.212275002,-1.2054000329999999,-8.96700021,-1.323000053,0.2764175989367713,-0.9610376220513067,-0.37709484168832036,0.9261746489577766
300,-0.10470058019999999,-0.3773823082,0.9037951826999999,0.1634544283,0.08487499832999999,-0.37887499329999996,-0.212275002,-1.2054000329999999,-8.96700021,-1.323000053,0.29973788317502426,-0.9540215937754006,-0.3993645835656953,0.9167921953165825
301,-0.10163243109999999,-0.37623175979999995,0.8754735589,0.1865330637,0.08802500367,-0.42052501200000003,-0.245350008,-1.332800072,-8.898399925,-1.420999959,0.3228804047714463,-0.9464397731576093,-0.42140110777252937,0.9068743608505453
302,-0.09626317024,-0.37508121130000005,0.9202106595,0.1967220008,0.08802500367,-0.42052501200000003,-0.245350008,-1.332800072,-8.898399925,-1.420999959,0.3458314388150116,-0.9382966566748168,-0.44319154559924123,0.8964269372957038
303,-0.09127742797,-0.3743141592,0.8900215626000001,0.19322478769999998,0.08802500367,-0.45149998659999996,-0.2742250013,-1.303400013,-8.829800224,-1.293599993,0.36857737395836115,-0.9295970736862065,-0.4647231720437685,0.8854560256532099
304,-0.08667520434,-0.3746976852,0.8899076581,0.1267161518,0.08802500367,-0.45149998659999996,-0.2742250013,-1.303400013,-8.829800224,-1.293599993,0.3911047204901556,-0.9203461835691596,-0.4859834132426061,0.873968032626518
305,-0.08322353661000001,-0.3739306331,0.8794629573999999,0.1384070963,0.08924999832999998,-0.46532500270000005,-0.315700016,-1.303400013,-9.055200243,-0.9211999685,0.4134001183352827,-0.9105494726594345,-0.5069598538135904,0.8619696668800492
306,-0.07823779434,-0.37508121130000005,0.9148275852,0.046522308139999996,0.08924999832999998,-0.46532500270000005,-0.315700016,-1.303400013,-9.055200243,-0.9211999685,0.435450344978191,-0.9002127509974375,-0.5276402441061329,0.849467935121521
307,-0.07401908934,-0.3758482337,0.8616883755,-0.007556892931,0.08277500033,-0.4663749933,-0.372400012,-1.009400001,-8.96700021,-0.4900000073,0.45724232330463843,-0.889342148882519,-0.5480125073546698,0.8364701380102268
308,-0.06903334707,-0.37623175979999995,0.8962287307,-0.01805817336,0.08277500033,-0.4663749933,-0.372400012,-1.009400001,-8.96700021,-0.4900000073,0.4787631293572091,-0.877944113237336,-0.5680647467311556,0.8229838658936566
309,-0.06596519798,-0.3789163828,0.8708049655,-0.1455595046,0.07525000334,-0.467424984,-0.44922500130000004,-0.7252000093000001,-9.15320015,-0.2744000085,0.5,-0.8660254037844386,-0.587785252292473,0.8090169943749475
310,-0.06174649671,-0.3808339834,0.8528460264,-0.2055921853,0.07525000334,-0.467424984,-0.44922500130000004,-0.7252000093000001,-9.15320015,-0.2744000085,0.5209403404879297,-0.8535930890373469,-0.6071625078187112,0.7945776797137544
311,-0.05445964262,-0.3827515841,0.9587064981,-0.23070006070000001,0.07,-0.46322498799999995,-0.5047000027,-0.7742000356000001,-8.986599958,-0.5193999939,0.541571731936184,-0.8406545421084942,-0.6261851975383137,0.7796743540632224
312,-0.05024093762,-0.38428565859999997,0.9381709099,-0.2713329494,0.07,-0.46322498799999995,-0.5047000027,-0.7742000356000001,-8.986599958,-0.5193999939,0.5618819386853601,-0.8272174363365301,-0.6448422127361707,0.7643157205458483
313,-0.04602223262,-0.385052681,0.9630882144,-0.2572318912,0.06037500083,-0.46532500270000005,-0.6018249893,-0.48019998740000003,-8.241800201,-0.4018000111,0.5818589155579525,-0.8132897407355656,-0.6631226582407953,0.7485107481711011
314,-0.03988593444,-0.38428565859999997,1.0387114290000001,-0.1625287384,0.06037500083,-0.46532500270000005,-0.6018249893,-0.48019998740000003,-8.241800201,-0.4018000111,0.6014908150018702,-0.7988797152690672,-0.6810158587867973,0.7322686665977733
315,-0.03374963626,-0.38428565859999997,1.04100728,-0.10603683439999999,0.02625,-0.4824749947,-0.7159249973,-0.05880000051,-8.506399715,-0.7447999761,0.6207659941167484,-0.7839959059512014,-0.6985113652489369,0.7155989607441212
316,-0.02224407904,-0.38428565859999997,1.134655356,-0.10603683439999999,0.02625,-0.4824749947,-0.7159249973,-0.05880000051,-8.506399715,-0.7447999761,0.6396730215588913,-0.768647139778532,-0.7155989607441211,0.698511365248937
317,-0.01955944858,-0.3858197331,1.159152389,-0.1376361996,-0.01014999971,-0.4780999947,-0.7789249706,-0.09799999780999999,-8.202600121,-1.332800072,0.6582006843207474,-0.7528425194950799,-0.7322686665977736,0.6810158587867972
318,-0.01265611406,-0.3858197331,1.283071756,-0.1064392179,-0.01014999971,-0.4780999947,-0.7789249706,-0.09799999780999999,-8.202600121,-1.332800072,0.6763379943809024,-0.736591418193844,-0.7485107481711012,0.6631226582407952
319,-0.00651981635,-0.38620322939999996,1.266563654,-0.09208166598999999,-0.05704999982999999,-0.471799984,-0.8385999679999999,0.1568000074,-8.251600075,-1.675800037,0.6940741952206335,-0.7199034737579962,-0.7643157205458484,0.6448422127361705
320,0.0019175930650000002,-0.38735380770000005,1.383056879,-0.1211270094,-0.05704999982999999,-0.471799984,-0.8385999679999999,0.1568000074,-8.251600075,-1.675800037,0.7113987682031776,-0.702788583145032,-0.7796743540632225,0.6261851975383135
321,0.01035500225,-0.39042195679999997,1.4616672990000001,-0.24580392239999999,-0.08154999732999998,-0.4611250067,-0.9091250134000001,0.1372000042,-9.055200243,-1.4504000190000002,0.7283014388119158,-0.6852568965172794,-0.7945776797137545,0.607162507818711
322,0.01879241131,-0.39425712820000003,1.530850649,-0.3812129498,-0.08154999732999998,-0.4611250067,-0.9091250134000001,0.1372000042,-9.055200243,-1.4504000190000002,0.7447721827437818,-0.6673188112222396,-0.8090169943749473,0.5877852522924732
323,0.02761333995,-0.3996263742,1.599789619,-0.5608976483,-0.11567500230000001,-0.454649992,-0.8727249813,0.45080000090000005,-10.50560026,-1.528800032,0.760801231854278,-0.6489849656263335,-0.8229838658936564,0.5680647467311558
324,0.03605074808,-0.4042285979,1.631439209,-0.6586614251,-0.11567500230000001,-0.454649992,-0.8727249813,0.45080000090000005,-10.50560026,-1.528800032,0.7763790799505743,-0.6302662328057086,-0.8364701380102267,0.54801250735467
325,0.04410463944,-0.4099813998,1.6344765419999998,-0.7873274088,-0.08802500367,-0.4269999933,-0.799224968,0.6664000362,-10.86819968,-1.440599999,0.7914964884292542,-0.6111737140978492,-0.8494679351215211,0.5276402441061326
326,0.05139149353,-0.4153506458,1.595629454,-0.8662855029000001,-0.08802500367,-0.4269999933,-0.799224968,0.6664000362,-10.86819968,-1.440599999,0.806144491755363,-0.5917187325178134,-0.8619696668800494,0.5069598538135902
327,0.05944538489,-0.4199528694,1.602288723,-0.8854845165999999,-0.07630000234,-0.4269999933,-0.7169750214,0.5683999836,-11.13280036,-0.9309999883,0.8203144027795106,-0.5719128260430034,-0.8739680326265179,0.48598341324260624
328,0.06788279116,-0.42263749240000004,1.639675736,-0.7987627387,-0.07630000234,-0.4269999933,-0.7169750214,0.5683999836,-11.13280036,-0.9309999883,0.8339978178898777,-0.5517677407704462,-0.88545602565321,0.4647231720437683
329,0.07325205207,-0.42532214520000006,1.4955877069999999,-0.7325152755,-0.020825001,-0.419474988,-0.6539749813,0.7938000023,-11.32880018,-1.195600013,0.8471866219960602,-0.5312954239506534,-0.8964269372957038,0.4431915455992414
330,0.07938835025,-0.4283902943,1.419017315,-0.7059757112999999,-0.020825001,-0.419474988,-0.6539749813,0.7938000023,-11.32880018,-1.195600013,0.85987299334181,-0.5105080169021791,-0.9068743608505454,0.4214011077725291
331,0.08590816706,-0.43107491729999997,1.387682557,-0.6306660175,0.019774999919999998,-0.43434999469999996,-0.578200016,0.7644000157999999,-11.064199499999999,-1.21519998,0.8720494081438076,-0.4894178478110855,-0.9167921953165824,0.3993645835656955
332,0.09242798388000001,-0.43260899189999996,1.365694046,-0.5479815602,0.019774999919999998,-0.43434999469999996,-0.578200016,0.7644000157999999,-11.064199499999999,-1.21519998,0.8837086450537188,-0.4680374244195868,-0.9261746489577765,0.37709484168832075
333,0.09856428206000001,-0.43491008880000004,1.324518919,-0.5566483736,0.06037500083,-0.4429249907,-0.5013749933,0.6272000298,-11.093599699999999,-0.950600028,0.8948437894408916,-0.4463794266081999,-0.9350162426854149,0.35460488704253545
334,0.10470058019999999,-0.4372112155,1.3128833770000001,-0.5410615206,0.06037500083,-0.4429249907,-0.5013749933,0.6272000298,-11.093599699999999,-0.950600028,0.9054482374931464,-0.42445669887581555,-0.9433118132577432,0.33190785312852816
335,0.1096863225,-0.43759474159999995,1.228542447,-0.3961831927,0.08382499933,-0.4450250053,-0.4138749933,0.6860000029000001,-11.11319945,-0.8525999755,0.915515700133237,-0.4022822427221327,-0.9510565162951535,0.3090169943749475
336,0.1192742884,-0.43759474159999995,1.1477694509999998,-0.3961831927,0.08382499933,-0.4450250053,-0.4138749933,0.6860000029000001,-11.11319945,-0.8525999755,0.925040206748652,-0.37986920893698567,-0.9582458291091663,0.28594567839868884
337,0.1234929934,-0.43644416329999997,1.193738699,-0.164168641,0.09869999766000001,-0.44835001469999997,-0.35210001469999996,0.6860000029000001,-10.4957998,-0.4214000143,0.9340161087325479,-0.35723088980113293,-0.9648755533435515,0.2627073781985869
338,0.1269446611,-0.43644416329999997,1.18896687,-0.12582211199999999,0.09869999766000001,-0.44835001469999997,-0.35210001469999996,0.6860000029000001,-10.4957998,-0.4214000143,0.9424380828337144,-0.3343807112031328,-0.970941817426052,0.23931566428755766
339,0.13116335869999998,-0.4372112155,1.10350275,-0.139307484,0.09134999632999999,-0.44625,-0.314649992,0.8330000087999999,-10.84859993,-0.49979999070000003,0.9503011343135824,-0.3113322246769817,-0.9764410788292721,0.21578419676780597
340,0.13653261960000002,-0.4368276894,1.093109012,-0.08100011945,0.09134999632999999,-0.44625,-0.314649992,0.8330000087999999,-10.84859993,-0.49979999070000003,0.957600599908406,-0.2880990993652374,-0.9813701261394134,0.19212671735370856
341,0.1399842948,-0.435677141,0.9833759665,-0.004272159189,0.08924999832999998,-0.41195001600000003,-0.20370000600000002,0.39199999119999995,-10.81919973,-0.48019998740000003,0.9643321505948587,-0.2646951139123932,-0.9857260809316509,0.16835704134703824
342,0.14612059300000002,-0.43491008880000004,1.0517455340000001,0.047169685360000005,0.08924999832999998,-0.41195001600000003,-0.20370000600000002,0.39199999119999995,-10.81919973,-0.48019998740000003,0.9704917941574052,-0.24113414829331134,-0.9895063994510511,0.1444890495692214
343,0.1499557793,-0.4329925179,0.9759969710999999,0.1354395598,0.08067500234,-0.3597999907,-0.1172499967,0.5586000003,-10.78979952,-0.4900000073,0.9760758775559271,-0.21743017558155736,-0.992708874098054,0.12053668025532308
344,0.1541744769,-0.43030786509999996,0.9559829831000001,0.24230264129999998,0.08067500234,-0.3597999907,-0.1172499967,0.5586000003,-10.78979952,-0.4900000073,0.9810810890921942,-0.19359725366253025,-0.9953316347176486,0.09651392091451506
345,0.1568591148,-0.4280067682,0.8542529345000001,0.3041347265,0.07962500334,-0.306425004,-0.057574999329999994,0.5488000169,-10.70160007,-0.5292000137,0.9855044603739027,-0.16964951689628488,-0.9973731496914912,0.07243480016176225
346,0.160310775,-0.42647269369999996,0.81149894,0.3058758676,0.07962500334,-0.306425004,-0.057574999329999994,0.5488000169,-10.70160007,-0.5292000137,0.98934336807511,-0.1456011677350058,-0.9988322268323266,0.048313379525506885
347,0.1614613384,-0.42493861909999997,0.6582739949,0.3092387021,0.07525000334,-0.2593499947,0.009625000209,0.48019998740000003,-11.064199499999999,-0.48019998740000003,0.9925955354920263,-0.12146646830009317,-0.9997080140801929,0.02416374523613248
348,0.1641459614,-0.4234045446,0.6253610253,0.3090500236,0.07525000334,-0.2593499947,0.009625000209,0.48019998740000003,-11.064199499999999,-0.48019998740000003,0.9952590338932358,-0.09725973192386973,-1.0,1.2246467991473532e-16
349,0.1668305993,-0.42033639549999996,0.6130502224000001,0.3905265331,0.09134999632999999,-0.2017749953,0.179375,0.4018000111,-11.54439974,-0.4115999945,0.9973322836635516,-0.07299531466090813,-0.9997080140801929,-0.024163745236132236
350,0.1672141105,-0.4168847203,0.4844522476,0.47299599649999996,0.09134999632999999,-0.2017749953,0.179375,0.4018000111,-11.54439974,-0.4115999945,0.998814055240823,-0.04868760677402551,-0.9988322268323266,-0.048313379525506635
351,0.1702822596,-0.4088308215,0.5220277309,0.7364425659,0.1329999983,-0.13877499699999998,0.31815000530000004,0.39199999119999995,-10.55460021,-0.17639999239999998,0.9997034698451394,-0.024351024199989916,-0.997373149691491,-0.07243480016176289
352,0.17066578570000002,-0.40039342640000003,0.4037303329,0.9934346079999999,0.1329999983,-0.13877499699999998,0.31815000530000004,0.39199999119999995,-10.55460021,-0.17639999239999998,1.0,-2.4492935982947064e-16,-0.9953316347176486,-0.09651392091451526
353,0.17066578570000002,-0.39425712820000003,0.29324549440000003,1.10391891,0.1958249927,-0.08119999766,0.268974998,0.9995999812999999,-9.69220022,-0.2744000085,1.0,0.0,-0.992708874098054,-0.12053668025532327
354,0.1683646739,-0.3816010058,0.09884571284,1.401322126,0.1958249927,-0.08119999766,0.268974998,0.9995999812999999,-9.69220022,-0.2744000085,0.9997146370488382,0.02388816590510054,-0.9895063994510511,-0.14448904956922118
355,0.1675976366,-0.370862484,0.031415313480000005,1.6008355619999999,0.2630249953,-0.100449996,0.268974998,1.028999968,-9.555000234,-0.7252000093000001,0.9988587110593807,0.047762698215160035,-0.9857260809316509,-0.16835704134703847
356,0.1675976366,-0.370862484,0.031415313480000005,1.6008355619999999,0.2630249953,-0.100449996,0.268974998,1.028999968,-9.555000234,-0.7252000093000001,0.9974327105307602,0.0716099711161833,-0.9813701261394134,-0.19212671735370837
357,0.168748185,-0.34324914219999997,0.04976399988,1.967728615,0.30572498800000003,-0.09502499699999999,0.2903250027,1.24460004,-8.878800177999999,-0.8722000152,0.995437449318415,0.09541637435182589,-0.9764410788292721,-0.21578419676780575
358,0.16951522230000002,-0.3363458216,0.08545460552,2.027290821,0.30572498800000003,-0.09502499699999999,0.2903250027,1.24460004,-8.878800177999999,-0.8722000152,0.992874066169601,0.11916832099112011,-0.9709418174260519,-0.23931566428755832
359,0.1691317111,-0.3244567513,0.047540824860000004,2.11815834,0.33039998530000003,-0.10360000130000001,0.29679998399999996,1.077999994,-8.643600285,-1.0192000209999998,0.9897440240734788,0.1428522551828883,-0.9648755533435515,-0.2627073781985871
360,0.168748185,-0.31256765129999997,0.021298259500000003,2.1926662919999997,0.33039998530000003,-0.10360000130000001,0.29679998399999996,1.077999994,-8.643600285,-1.0192000209999998,0.9860491094261479,0.16645465989241826,-0.9582458291091661,-0.2859456783986895
361,0.168748185,-0.3022126555,0.01973453164,2.162197113,0.33985000130000004,-0.090825001,0.293475008,0.2548000053,-8.623999953,-1.352399966,0.9817914310111044,0.1899620646159852,-0.9510565162951534,-0.30901699437494773
362,0.1691317111,-0.2895565629,0.04600474983,2.263439178,0.33985000130000004,-0.090825001,0.293475008,0.2548000053,-8.623999953,-1.352399966,0.9769734187957038,0.21336105306881695,-0.9433118132577432,-0.3319078531285284
363,0.1679811478,-0.2803521156,-0.03045265749,2.156093121,0.3291749907,-0.046025002,0.2155999947,-1.6856000569999998,-8.379000187,-1.577799985,0.9715978225443147,0.23663827084211528,-0.9350162426854148,-0.3546048870425356
364,0.1679811478,-0.2711476684,-0.027288720010000003,2.071148634,0.3291749907,-0.046025002,0.2155999947,-1.6856000569999998,-8.379000187,-1.577799985,0.9656677102489586,0.25978043302476295,-0.9261746489577765,-0.3770948416883205
365,0.1691317111,-0.26692894100000003,0.044700901960000004,1.750187755,0.253574996,-0.0033249999579999996,0.02257499933,-3.400600028,-9.721599841,-0.9898000345,0.9591864663783259,0.28277433178536665,-0.9167921953165825,-0.39936458356569526
366,0.1675976366,-0.2592585683,-0.04303491861000001,1.71089077,0.253574996,-0.0033249999579999996,0.02257499933,-3.400600028,-9.721599841,-0.9898000345,0.9521577899461731,0.3056068439103082,-0.9068743608505455,-0.4214011077725289
367,0.1683646739,-0.2531222701,0.006419293582,1.585357666,0.066674999,0.02975000083,-0.1930249953,-4.459000129,-12.37740011,0.1666000091,0.9445856924001987,0.32826493829350273,-0.8964269372957037,-0.44319154559924157
368,0.1679811478,-0.2466024607,-0.01689304784,1.512651205,0.066674999,0.02975000083,-0.1930249953,-4.459000129,-12.37740011,0.1666000091,0.9364744953326074,0.3507356833735886,-0.8854560256532097,-0.46472317204376884
369,0.1641459614,-0.2443013489,-0.2222285867,1.242705703,-0.223475008,0.082075001,-0.268799994,-3.3417999089999997,-17.10100005,2.822399879,0.9278288280136645,0.37300625451430397,-0.873968032626518,-0.4859834132426061
370,0.1626118869,-0.2435343117,-0.24534654620000002,0.9040158390999999,-0.223475008,0.082075001,-0.268799994,-3.3417999089999997,-17.10100005,2.822399879,0.9186536247496517,0.3950639413238394,-0.8619696668800492,-0.5069598538135904
371,0.1583931893,-0.24621894960000001,-0.40859773759999996,0.5162715315999999,-0.46147501469999996,0.121450001,-0.18339999199999998,-0.9701999947,-17.16959975,3.5084001000000002,0.908954122066731,0.4168961549089873,-0.849467935121521,-0.5276402441061329
372,0.157626152,-0.2469859868,-0.343876332,0.33599337939999996,-0.46147501469999996,0.121450001,-0.18339999199999998,-0.9701999947,-17.16959975,3.5084001000000002,0.898735855722323,0.43849043505994956,-0.8364701380102268,-0.5480125073546698
373,0.1549415141,-0.2515881956,-0.40333768729999997,0.0134333279,-0.503125,0.1557499933,-0.007349999771,-0.5683999836,-12.35780036,2.185400048,0.8880046575457073,0.45983445736170203,-0.8229838658936566,-0.5680647467311556
374,0.1530239284,-0.2577244937,-0.40548878909999997,-0.3150987327,-0.503125,0.1557499933,-0.007349999771,-0.5683999836,-12.35780036,2.185400048,0.8767666521096465,0.4809160402278573,-0.8090169943749472,-0.5877852522924734
375,0.1511063278,-0.26232671739999996,-0.4056647122,-0.4769282043,-0.363300004,0.212275002,-0.015925000459999998,0.37239998799999996,-9.231599724,1.597400025,0.8650282532349333,0.5017231518530116,-0.794577679713754,-0.6071625078187115
376,0.1511063278,-0.26232671739999996,-0.4056647122,-0.4769282043,-0.363300004,0.212275002,-0.015925000459999998,0.37239998799999996,-9.231599724,1.597400025,0.8527961603298572,0.522243917079608,-0.779674354063222,-0.626185197538314
377,0.1326974332,-0.26232671739999996,-1.007183433,-0.24755993489999997,-0.08470000267000001,0.33705000399999996,-0.007349999771,0.39199999119999995,-8.124199962999999,0.37239998799999996,0.8400773545666788,0.5424666241753964,-0.7643157205458483,-0.6448422127361707
378,0.1261776239,-0.2638607919,-1.199352503,-0.2705803216,-0.08470000267000001,0.33705000399999996,-0.007349999771,0.39199999119999995,-8.124199962999999,0.37239998799999996,0.8268790948972938,0.5623797315176217,-0.7485107481711011,-0.6631226582407953
379,0.1146720648,-0.2657783926,-1.4801840780000002,-0.2930355072,0.09345000267,0.3295249987,0.060900000329999995,0.009800000465,-9.976400065,-2.861599958,0.8132089139103611,0.5819718741801282,-0.7322686665977733,-0.6810158587867973
380,0.10163243109999999,-0.2634772956,-1.772590756,-0.09140892327,0.09345000267,0.3295249987,0.060900000329999995,0.009800000465,-9.976400065,-2.861599958,0.7990746135322594,0.6012318704196163,-0.7155989607441212,-0.6985113652489369
381,0.08935983479000001,-0.2600256205,-1.9479818340000001,0.11235587300000001,0.15959999800000002,0.28367498399999996,0.20387499329999997,-1.773799944,-10.21160054,-4.449199963,0.7844842605743257,0.6201487280573535,-0.6985113652489371,-0.7155989607441209
382,0.07593668252,-0.2569574714,-2.1457777019999997,0.2414020151,0.15959999800000002,0.28367498399999996,0.20387499329999997,-1.773799944,-10.21160054,-4.449199963,0.7694461821289171,0.6387116507526955,-0.6810158587867975,-0.7322686665977731
383,0.06097945943,-0.2527387738,-2.253515482,0.3984116614,0.114799999,0.18339999199999998,0.139824996,-2.195200068,-11.20140007,-4.713800061000001,0.7539689608169237,0.6569100441648372,-0.6631226582407949,-0.7485107481711013
384,0.05062445626,-0.24621894960000001,-2.329307079,0.62324965,0.114799999,0.18339999199999998,0.139824996,-2.195200068,-11.20140007,-4.713800061000001,0.738061429889444,0.6747335219992774,-0.6448422127361703,-0.7643157205458486
385,0.03374963626,-0.2393156141,-2.491072655,0.8280522227,0.0017500000260000001,0.04462499916999999,0.08330000401000001,-2.7832000910000003,-12.05400019,-3.3712001139999996,0.7217326681864206,0.6921719119355466,-0.6261851975383133,-0.7796743540632227
386,0.021477041769999997,-0.2327957898,-2.4822947980000003,0.9540937543000001,0.0017500000260000001,0.04462499916999999,0.08330000401000001,-2.7832000910000003,-12.05400019,-3.3712001139999996,0.7049919949551102,0.7092152614328135,-0.6071625078187114,-0.7945776797137541
387,0.005752779078,-0.2247419059,-2.6642701630000003,1.138749838,-0.1317750037,-0.1303749967,0.060900000329999995,-2.773399925,-12.36759965,-1.93059997,0.687848964531348,0.7258538434100574,-0.5877852522924732,-0.8090169943749473
388,-0.008437409066,-0.21745504440000002,-2.719722509,1.165600896,-0.1317750037,-0.1303749967,0.060900000329999995,-2.773399925,-12.36759965,-1.93059997,0.6703133608866415,0.7420781617975665,-0.5680647467311559,-0.8229838658936564
389,-0.02109352313,-0.2120857835,-2.8104965689999997,1.20382905,-0.20860000129999998,-0.31272501469999997,0.10465000029999999,-2.665600145,-12.26959975,0.1666000091,0.6523951920442034,0.7578789569565889,-0.54801250735467,-0.8364701380102267
390,-0.03873537853,-0.2067165226,-2.9916200639999997,1.160835981,-0.20860000129999998,-0.31272501469999997,0.10465000029999999,-2.665600145,-12.26959975,0.1666000091,0.6341046843671143,0.7732472109640501,-0.5276402441061327,-0.8494679351215211
391,-0.06174649671,-0.1994296759,-3.247202396,1.161296248,-0.234150002,-0.4301499987,0.2049250007,-2.812600005,-12.23040025,1.76400007,0.6154522767218724,0.7881741527593149,-0.5069598538135903,-0.8619696668800493
392,-0.08245649933999999,-0.194060415,-3.482439995,1.198961496,-0.234150002,-0.4301499987,0.2049250007,-2.812600005,-12.23040025,1.76400007,0.5964486145206612,0.802651263150058,-0.48598341324260597,-0.873968032626518
393,-0.09971483797,-0.18907468019999998,-3.6655638219999997,1.1433506009999999,-0.22889999870000002,-0.4973500013,0.3436999893,-2.9791999039999997,-12.210800500000001,2.43039996,0.5771045436457382,0.8166702796743888,-0.46472317204376834,-0.88545602565321
394,-0.1265611351,-0.185623005,-3.905860901,1.017904162,-0.22889999870000002,-0.4973500013,0.3436999893,-2.9791999039999997,-12.210800500000001,2.43039996,0.5574311042594078,0.8302232013164516,-0.443191545599241,-0.8964269372957039
395,-0.1499557793,-0.1806372702,-4.113731861000001,1.006726027,-0.22662499670000003,-0.506974988,0.454649992,-2.547999907,-11.025,2.646000105,0.5374395245031159,0.843302293072813,-0.42140110777252876,-0.9068743608505456
396,-0.1867735684,-0.1806372702,-4.321865559,1.006726027,-0.22662499670000003,-0.506974988,0.454649992,-2.547999907,-11.025,2.646000105,0.5171412140892576,0.8559000903670291,-0.39936458356569593,-0.9167921953165822
397,-0.1963615268,-0.1741174459,-4.374025822,0.8017449975,-0.21279999730000002,-0.45149998659999996,0.4866749907,-2.048200062,-10.00580027,1.7933999840000001,0.4965477577893598,0.8680094033098715,-0.37709484168832075,-0.9261746489577763
398,-0.21822208170000001,-0.1714328229,-4.382131577,0.7791406512000001,-0.21279999730000002,-0.45149998659999996,0.4866749907,-2.048200062,-10.00580027,1.7933999840000001,0.47567090882235064,0.8796233208027848,-0.3546048870425359,-0.9350162426854147
399,-0.2408496886,-0.168748185,-4.4139204030000005,0.7181394696,-0.1744750047,-0.340549984,0.446074996,-1.0878000140000001,-8.908199799,1.558199945,0.4545225821466949,0.8907352144822281,-0.33190785312852783,-0.9433118132577433
400,-0.26232671739999996,-0.1672141105,-4.379299641,0.6086970568,-0.1744750047,-0.340549984,0.446074996,-1.0878000140000001,-8.908199799,1.558199945,0.433114847660217,0.9013387425026548,-0.30901699437494756,-0.9510565162951535
401,-0.283803761,-0.1637624502,-4.3566112519999995,0.6389846802,-0.106049999,-0.2616249967,0.4088000107,-1.097600034,-9.69220022,0.8330000087999999,0.41145992331149855,0.9114278531559674,-0.28594567839868934,-0.9582458291091662
402,-0.3029797077,-0.1610778123,-4.237280369,0.6267435551,-0.106049999,-0.2616249967,0.4088000107,-1.097600034,-9.69220022,0.8330000087999999,0.38957016812677825,0.9209967883253849,-0.2627073781985869,-0.9648755533435515
403,-0.3194710016,-0.157626152,-4.004983902,0.6409837008,-0.011199999750000002,-0.21787499670000002,0.3916499853,-1.146599987,-9.15320015,0.7055999695999999,0.3674580751563356,0.9300400867717481,-0.23931566428755774,-0.970941817426052
404,-0.334428221,-0.1541744769,-3.7348422999999995,0.6589150429,-0.011199999750000002,-0.21787499670000002,0.3916499853,-1.146599987,-9.15320015,0.7055999695999999,0.3451362643443831,0.9385525872503917,-0.21578419676780605,-0.9764410788292721
405,-0.3505360186,-0.1503392905,-3.5867280960000003,0.6884155868999999,0.05722499967,-0.19547500129999998,0.337225008,-0.9309999883,-9.163000023,0.6272000298,0.3226174753265381,0.9465294314567987,-0.19212671735370823,-0.9813701261394134
406,-0.3647261858,-0.14612059300000002,-3.3750071530000003,0.7244556545999999,0.05722499967,-0.19547500129999998,0.337225008,-0.9309999883,-9.163000023,0.6272000298,0.29991456015898205,0.9539660667993618,-0.16835704134703833,-0.9857260809316509
407,-0.3816010058,-0.1415183693,-3.3639214039999996,0.7435997128,0.09029999732999999,-0.1590750027,0.280700016,-1.038799988,-9.123799944,0.17639999239999998,0.2770404759834593,0.9608582489976647,-0.14448904956922104,-0.9895063994510511
408,-0.39540767670000004,-0.1361491084,-3.196580887,0.8402920961,0.09029999732999999,-0.1590750027,0.280700016,-1.038799988,-9.123799944,0.17639999239999998,0.25400827763230077,0.9672020445048035,-0.12053668025532269,-0.9927088740980541
409,-0.4088308215,-0.13423150779999998,-3.060117483,0.765419066,0.08067500234,-0.142099998,0.25077499870000003,-1.264199933,-9.280600262,0.49979999070000003,0.2308311101776931,0.9729938327523632,-0.09651392091451468,-0.9953316347176486
410,-0.4211034179,-0.1307798475,-2.90582037,0.7529847026,0.08067500234,-0.142099998,0.25077499870000003,-1.264199933,-9.280600262,0.49979999070000003,0.20752220142944472,0.97823030821677,-0.07243480016176186,-0.9973731496914912
411,-0.4329925179,-0.1280952096,-2.766690731,0.6584228277,0.071049999,-0.1228499997,0.20930000070000002,-0.8231999889,-10.01559956,0.7545999959,0.18409485438553336,0.9829084823058397,-0.048313379525507384,-0.9988322268323265
412,-0.4460321367,-0.1238765121,-2.7243423460000002,0.7009299397,0.071049999,-0.1228499997,0.20930000070000002,-0.8231999889,-10.01559956,0.7545999959,0.1605624396397397,0.987025685064444,-0.02416374523613254,-0.9997080140801929
413,-0.4575377107,-0.1238765121,-2.626472712,0.5131872296,0.09029999732999999,-0.1090250003,0.21349999670000003,-0.7938000023,-10.33899949,0.9016000018000001,0.13693838775070338,0.9905795666983234,-1.8369701987210297e-16,-1.0
414,-0.4675091803,-0.1223424375,-2.461094856,0.4492461383,0.09029999732999999,-0.1090250003,0.21349999670000003,-0.7938000023,-10.33899949,0.9016000018000001,0.11323618157675532,0.9935680989151756,0.024163745236132173,-0.9997080140801929
415,-0.4782477021,-0.1204248443,-2.3801906109999997,0.4348085821,0.09659999967,-0.1197000027,0.266875,-0.9016000018000001,-10.38799944,1.077999994,0.08946934858090141,0.9959895760822546,0.04831337952550702,-0.9988322268323266
416,-0.4782477021,-0.1204248443,-2.3801906109999997,0.4348085821,0.09659999967,-0.1197000027,0.266875,-0.9016000018000001,-10.38799944,1.077999994,0.06565145311034817,0.9978426161998193,0.07243480016176239,-0.9973731496914912
417,-0.500108242,-0.1142885461,-2.10812974,0.4752512276,0.11042499900000001,-0.10360000130000001,0.21769999269999998,-1.038799988,-9.00620029,1.136799967,0.04179608865497967,0.9991261616898764,0.0965139209145152,-0.9953316347176486
418,-0.5062445402,-0.1127544716,-2.10275197,0.47605443,0.11042499900000001,-0.10360000130000001,0.21769999269999998,-1.038799988,-9.00620029,1.136799967,0.017916870089199958,0.9998394799997681,0.12053668025532321,-0.992708874098054
419,-0.5158325434000001,-0.1112203971,-2.06147337,0.4255000353,0.111650002,-0.10360000130000001,0.1739499927,-0.45080000090000005,-9.584399855,0.3233999982,-0.005972574098428005,0.9999821640202583,0.1444890495692215,-0.9895063994510511
420,-0.5238864422,-0.1073852107,-1.939902425,0.515422225,0.111650002,-0.10360000130000001,0.1739499927,-0.45080000090000005,-9.584399855,0.3233999982,-0.02985860958331489,0.9995541323178806,0.16835704134703883,-0.9857260809316508
421,-0.5342414379,-0.1035500243,-1.9719524380000002,0.5877656340999999,0.08802500367,-0.09625,0.288224988,-1.1857999940000001,-9.584399855,0.5389999971,-0.05372760398630477,0.9985556291814146,0.19212671735370784,-0.9813701261394135
422,-0.5442128778,-0.10009835660000001,-1.9703987840000001,0.620655179,0.08802500367,-0.09625,0.288224988,-1.1857999940000001,-9.584399855,0.5389999971,-0.07756593465403033,0.9969872244824638,0.21578419676780655,-0.976441078829272
423,-0.5538008809,-0.09779724479,-1.9580800530000002,0.5834974051,0.07962500334,-0.1153250027,0.2465750027,-0.7153999895,-9.564800107,0.009800000465,-0.10135999643371046,0.9948498133502153,0.23931566428755824,-0.9709418174260519
424,-0.5626217723,-0.09281150252,-1.907159448,0.6937091947,0.07962500334,-0.1153250027,0.2465750027,-0.7153999895,-9.564800107,0.009800000465,-0.12509620943796668,0.9921446156605661,0.26270737819858747,-0.9648755533435514
425,-0.5722097754,-0.08935983479000001,-1.923431158,0.7073912024,0.08277500033,-0.166600008,0.2721250033,-0.9898000345,-9.731399715,-0.03920000186,-0.14876102679521416,0.9888731753399086,0.285945678398689,-0.9582458291091662
426,-0.5798801184000001,-0.08782576025000001,-1.830758572,0.6083522439,0.08277500033,-0.166600008,0.2721250033,-0.9898000345,-9.731399715,-0.03920000186,-0.17234094238121314,0.9850373594839718,0.30901699437494723,-0.9510565162951536
427,-0.5863999724,-0.08514112979,-1.6870373490000001,0.5539293289,0.062474998829999996,-0.187949996,0.2999499893,-0.7350000292000001,-9.702000092999999,-0.048999998899999994,-0.19582249852736477,0.980639357292221,0.33190785312852833,-0.9433118132577432
428,-0.5967549682,-0.08168946207000001,-1.796065211,0.5906475186,0.062474998829999996,-0.187949996,0.2999499893,-0.7350000292000001,-9.702000092999999,-0.048999998899999994,-0.2191922937013487,0.9756816788184257,0.35460488704253557,-0.9350162426854148
429,-0.6017407178999999,-0.08015538752000001,-1.5982016319999999,0.5088231564,0.06457500099999999,-0.2061499953,0.327599988,-1.068199974,-9.672599887999999,0.048999998899999994,-0.24243699015572778,0.9701671535381063,0.37709484168832047,-0.9261746489577765
430,-0.6086440086,-0.07862131298,-1.542701602,0.4519742131,0.06457500099999999,-0.2061499953,0.327599988,-1.068199974,-9.672599887999999,0.048999998899999994,-0.26554332154014365,0.9640989287336792,0.39936458356569565,-0.9167921953165824
431,-0.6147803068,-0.07670371979,-1.4521226880000002,0.44320958850000003,0.049699998499999995,-0.2262750053,0.38097500799999995,-0.8623999953,-9.917599654,-0.235200002,-0.28849810047276747,0.9574804676982215,0.42140110777252926,-0.9068743608505454
432,-0.620916605,-0.0778542757,-1.3914995190000001,0.2705987394,0.049699998499999995,-0.2262750053,0.38097500799999995,-0.8623999953,-9.917599654,-0.235200002,-0.31128822606668044,0.9503155477588795,0.4431915455992415,-0.8964269372957037
433,-0.6274364591,-0.07670371979,-1.3663457630000002,0.2614545226,0.04007499933,-0.2530500007,0.4481750107,-0.9800000146,-9.721599841,-0.2744000085,-0.33390069140688877,0.9426082581210509,0.4647231720437688,-0.8854560256532098
434,-0.6324222088,-0.07670371979,-1.271540999,0.1964283735,0.04007499933,-0.2530500007,0.4481750107,-0.9800000146,-9.721599841,-0.2744000085,-0.3563225909737075,0.9343629975345684,0.48598341324260635,-0.8739680326265178
435,-0.6389420033,-0.07516964525,-1.2912848,0.22319236399999998,0.03045000017,-0.2744000053,0.4749499893,-0.6369999766,-9.36879971,-0.08819999619999999,-0.3785411280082745,0.9255844717832205,0.5069598538135908,-0.8619696668800491
436,-0.6389420033,-0.07516964525,-1.2912848,0.22319236399999998,0.03045000017,-0.2744000053,0.4749499893,-0.6369999766,-9.36879971,-0.08819999619999999,-0.4005436218159922,0.9162776909990373,0.5276402441061323,-0.8494679351215213
437,-0.6496804953,-0.06941686571000001,-1.09366107,0.3336485922,0.027299999,-0.2988999987,0.44712498659999994,-0.6174000099,-9.084599864,-0.09799999780999999,-0.42231751500372944,0.9064479668028799,0.5480125073546697,-0.836470138010227
438,-0.6527486444,-0.06903334707,-1.0804147720000001,0.297975719,0.027299999,-0.2988999987,0.44712498659999994,-0.6174000099,-9.084599864,-0.09799999780999999,-0.44385038064664856,0.8961009092729597,0.5680647467311563,-0.8229838658936561
439,-0.6565838456,-0.06864982842999999,-1.000564814,0.2409628183,-0.002625000104,-0.31919999600000004,0.4749499893,-0.7252000093000001,-9.643200266000001,0.009800000465,-0.4651299293805773,0.8852424237430214,0.5877852522924737,-0.809016994374947
440,-0.6631036996999999,-0.06941686571000001,-1.092071772,0.14622549710000002,-0.002625000104,-0.31919999600000004,0.4749499893,-0.7252000093000001,-9.643200266000001,0.009800000465,-0.4861440164158618,0.8738787074320179,0.6071625078187111,-0.7945776797137544
441,-0.6657882929,-0.07095094025,-0.9650613666,0.033183399589999996,-0.02712499917,-0.3137750053,0.542149992,-0.5879999869,-9.8,0.2155999988,-0.5068806484687186,0.8620162459071936,0.6261851975383136,-0.7796743540632225
442,-0.6669388413,-0.07095094025,-0.7763521075,0.023202190180000002,-0.02712499917,-0.3137750053,0.542149992,-0.5879999869,-9.8,0.2155999988,-0.5273279906061078,0.8496618093826065,0.6448422127361706,-0.7643157205458483
443,-0.6707740426,-0.07095094025,-0.7713042498,0.010709725320000002,-0.04637500166999999,-0.315,0.5699749947,-0.5879999869,-9.172799897,0.6761999831000001,-0.5474743730002379,0.8368224488551895,0.6631226582407952,-0.7485107481711011
444,-0.6742256879999999,-0.07018390297999999,-0.7530825137999999,0.04825404659,-0.04637500166999999,-0.315,0.5699749947,-0.5879999869,-9.172799897,0.6761999831000001,-0.5673082975888385,0.8235054920805652,0.6810158587867972,-0.7322686665977735
445,-0.6742256879999999,-0.07056742162,-0.5601289272,0.015425609419999998,-0.062299999,-0.3116749907,0.5411000013,-0.2939999934,-9.143400276,0.46059998420000003,-0.586818444637402,0.8097185393909049,0.6985113652489371,-0.7155989607441209
446,-0.6742256879999999,-0.07018390297999999,-0.4176156819,0.033097673210000005,-0.062299999,-0.3116749907,0.5411000013,-0.2939999934,-9.143400276,0.46059998420000003,-0.6059936791996497,0.7954694593572226,0.7155989607441207,-0.6985113652489374
447,-0.6726916432,-0.06941686571000001,-0.2173810154,0.06871283053999999,-0.09012500167000001,-0.32235000129999997,0.5166000079999999,-0.2155999988,-8.594599748,0.6566000164,-0.624823057472534,0.7807663842985778,0.7322686665977738,-0.6810158587867969
448,-0.6723081470000001,-0.06980038434,-0.1234422028,0.035489983860000004,-0.09012500167000001,-0.32235000129999997,0.5166000079999999,-0.2155999988,-8.594599748,0.6566000164,-0.6432958330421493,0.7656177056407507,0.7485107481711013,-0.6631226582407949
449,-0.6719245911,-0.06980038434,-0.07088422030000001,0.02988220565,-0.09117500066999999,-0.292424984,0.46532500270000005,0.07840000372,-8.918000257000001,0.8525999755,-0.6614014630169913,0.7500320691270363,0.7643157205458486,-0.6448422127361703
450,-0.6715410948,-0.06903334707,-0.03339139372,0.06968201697000001,-0.09117500066999999,-0.292424984,0.46532500270000005,0.07840000372,-8.918000257000001,0.8525999755,-0.6791296140450543,0.7340183698838985,0.7796743540632227,-0.6261851975383133
451,-0.6719245911,-0.06941686571000001,-0.04759713262,0.03064217046,-0.08575000167,-0.2700250053,0.460075016,0.3233999982,-9.11400007,1.0878000140000001,-0.6964701682113474,0.7175857473442859,0.7945776797137541,-0.6071625078187114
452,-0.6715410948,-0.06826630980000001,-0.010283349079999999,0.08318980038,-0.08575000167,-0.2700250053,0.460075016,0.3233999982,-9.11400007,1.0878000140000001,-0.7134132288124462,0.7007435800315265,0.8090169943749473,-0.5877852522924732
453,-0.6715410948,-0.06826630980000001,-0.01197189465,0.06386739016,-0.08259999633,-0.2509500027,0.446074996,0.7153999895,-8.927800131,1.175999974,-0.7299491260048017,0.6835014802067558,0.8229838658936564,-0.5680647467311559
454,-0.6707740426,-0.06749927253,0.03817936778,0.08946374059000001,-0.08259999633,-0.2509500027,0.446074996,0.7153999895,-8.927800131,1.175999974,-0.7460684223235677,0.6658692883829548,0.8364701380102272,-0.5480125073546693
455,-0.6700069904,-0.06558167933999999,0.057009320710000005,0.1626744419,-0.08049999833,-0.21682500600000001,0.3927000093,0.9211999685,-8.594599748,1.372000006,-0.7617619180688082,0.6478570677087118,0.8494679351215211,-0.5276402441061327
456,-0.6700069904,-0.06558167933999999,0.057009320710000005,0.1626744419,-0.08049999833,-0.21682500600000001,0.3927000093,0.9211999685,-8.594599748,1.372000006,-0.7770206565560032,0.6294750982249241,0.8619696668800493,-0.5069598538135903
457,-0.6634871960000001,-0.0563772358,0.29947340489999996,0.4590788782,-0.06457500099999999,-0.1590750027,0.2721250033,1.195600013,-7.526400065,1.813000023,-0.7918359292278612,0.6107338709977118,0.873968032626518,-0.48598341324260597
458,-0.6608025432,-0.05177501217,0.4030238092,0.6322980522999999,-0.06457500099999999,-0.1590750027,0.2721250033,1.195600013,-7.526400065,1.813000023,-0.8061992806245184,0.5916440821308948,0.88545602565321,-0.46472317204376834
459,-0.6600355506000001,-0.04717278853,0.3444606662,0.7089360952,-0.056000000829999994,-0.1132249963,0.051275001169999994,1.362199986,-7.849799991,1.597400025,-0.8201025132092886,0.5722166266614493,0.8964269372957039,-0.44319154559924107
460,-0.6600355506000001,-0.0425705649,0.2512258291,0.7646368742,-0.056000000829999994,-0.1132249963,0.051275001169999994,1.362199986,-7.849799991,1.597400025,-0.8335376920472097,0.552462592341428,0.9068743608505456,-0.4214011077725288
461,-0.6585014462,-0.03758482262,0.2497724593,0.8219730854,-0.0409499985,-0.03639999866,0.0033249999579999996,0.9995999812999999,-8.575,1.940399989,-0.8464971493337166,0.5323932533098926,0.9167921953165822,-0.399364583565696
462,-0.6573508978,-0.034133154900000004,0.2246924639,0.7810137868000001,-0.0409499985,-0.03639999866,0.0033249999579999996,0.9995999812999999,-8.575,1.940399989,-0.8589734887708557,0.512020063658471,0.9261746489577763,-0.3770948416883208
463,-0.6527486444,-0.029147414489999995,0.3947308064,0.8388175368,-0.030275000330000003,0.04567499816000001,0.03534999967,0.9995999812999999,-9.163000023,2.263800061,-0.870959589788544,0.49135465089421015,0.935016242685415,-0.3546048870425351
464,-0.6458453536,-0.02531222813,0.6626065373,0.7774636745,-0.030275000330000003,0.04567499816000001,0.03534999967,0.9995999812999999,-9.163000023,2.263800061,-0.882448611608463,0.47040880930345685,0.9433118132577433,-0.3319078531285279
465,-0.640476048,-0.02301111631,0.7799742818000001,0.7285227776000001,-0.03132499933,0.130024997,-0.048999999169999996,0.48019998740000003,-8.349599981,2.410800067,-0.8934339971482674,0.44919449322055327,0.9510565162951535,-0.3090169943749476
466,-0.6316551565999999,-0.02071000449,1.035557866,0.6604375243,-0.03132499933,0.130024997,-0.048999999169999996,0.48019998740000003,-8.349599981,2.410800067,-0.9039094767638833,0.4277238102051869,0.9582458291091662,-0.2859456783986894
467,-0.6232177615,-0.01840889268,1.210355163,0.5731170774000001,-0.007874999791,0.26232499600000003,-0.16957499269999998,0.9309999883,-8.349599981,2.724399972,-0.913869071827754,0.4060090141322967,0.9648755533435515,-0.26270737819858697
468,-0.6151638627,-0.015340744519999998,1.305846214,0.5728276968,-0.007874999791,0.26232499600000003,-0.16957499269999998,0.9309999883,-8.349599981,2.724399972,-0.9233070981410005,0.38406249819846355,0.970941817426052,-0.2393156642875578
469,-0.6074934602000001,-0.01188907679,1.354280233,0.6102331877,0.01557499975,0.3818499947,-0.2505999947,0.46059998420000003,-9.22179985,2.920400077,-0.9322181691775385,0.3618967878487983,0.9764410788292721,-0.2157841967678061
470,-0.5971384645000001,-0.011505558159999998,1.536201596,0.4788015783,0.01557499975,0.3818499947,-0.2505999947,0.46059998420000003,-9.22179985,2.920400077,-0.9405971991583105,0.3395245336283397,0.9813701261394134,-0.1921267173537083
471,-0.5883175731,-0.01073852088,1.588495135,0.40038311479999994,0.01872500092,0.48964999200000003,-0.23152499199999999,0.3626000047,-10.17239988,3.165400136,-0.9484394059538699,0.31695850396206504,0.9857260809316509,-0.16835704134703838
472,-0.5791131258,-0.01227259543,1.6500433680000002,0.2141894996,0.01872500092,0.48964999200000003,-0.23152499199999999,0.3626000047,-10.17239988,3.165400136,-0.9557403138136671,0.29421157786761754,0.9895063994510511,-0.1444890495692211
473,-0.571059227,-0.01035500225,1.6434395309999998,0.2563598156,0.03149999917,0.5974499893,-0.18235000129999998,-1.028999968,-10.79959998,3.292799956,-0.962495755920476,0.27129673760491746,0.9927088740980541,-0.12053668025532276
474,-0.5614712238,-0.01035500225,1.620570183,0.19214025140000002,0.03149999917,0.5974499893,-0.18235000129999998,-1.028999968,-10.79959998,3.292799956,-0.9687018767685047,0.24822706126685048,0.9953316347176486,-0.09651392091451474
475,-0.5553349257,-0.006903334986,1.589616895,0.33814889189999997,0.08487499832999999,0.6891500187,-0.177099998,-3.312399995,-11.025,2.5382000330000003,-0.9743551343638321,0.22501571531526082,0.9973731496914912,-0.07243480016176193
476,-0.5422953367,-0.006903334986,1.514541388,0.33814889189999997,0.08487499832999999,0.6891500187,-0.177099998,-3.312399995,-11.025,2.5382000330000003,-0.9794523022459164,0.2016759470665109,0.9988322268323265,-0.04831337952550745
477,-0.5403777361,-0.0030681488569999998,1.448764801,0.3318448961,0.17885000469999998,0.7115499973,-0.289100008,-4.664800107,-11.73060026,1.097600034,-0.9839904713290183,0.17822107713089494,0.9997080140801929,-0.024163745236132603
478,-0.5323238373,-0.001150555792,1.486939311,0.3643596172,0.17885000469999998,0.7115499973,-0.289100008,-4.664800107,-11.73060026,1.097600034,-0.9879670515624934,0.15466449181021952,1.0,-2.4492935982947064e-16
479,-0.5300227404,-0.002301111585,1.293514609,0.2048106194,0.229950006,0.696675024,-0.314649992,-3.361399949,-13.94539979,-0.7252000093000001,-0.9913797734089995,0.13101963545789916,1.0,0.0
480,-0.5254204869,-0.002684630221,1.123455644,0.1286351234,0.229950006,0.696675024,-0.314649992,-3.361399949,-13.94539979,-0.7252000093000001,-0.9942266891397816,0.10730000280590912,0.9997124546531568,0.023979324664381758
481,-0.5223523378,-0.005369260442,0.9888187647,-0.04976023734,0.328125,0.6998250294,-0.2005500007,-2.841999918,-13.37700009,-1.401400065,-0.9965061739462902,0.08351913126299926,0.9988499839772803,0.04794485904230814
482,-0.5215852857,-0.00651981635,0.8190022707,-0.100624755,0.328125,0.6998250294,-0.2005500007,-2.841999918,-13.37700009,-1.401400065,-0.9982169268675023,0.05969059318853759,0.9974130839712297,0.0718828207779892
483,-0.5189006925,-0.008053890429,0.7444735765,-0.1525465697,0.4231500053,0.7126000214,-0.12057499769999999,-2.3715999869999997,-11.18180032,-1.1662000270000001,-0.9993579715324135,0.03582798814641817,0.9954025809828264,0.0957794433724049
484,-0.517750144,-0.008053890429,0.6019389033,-0.1147139519,0.4231500053,0.7126000214,-0.12057499769999999,-2.3715999869999997,-11.18180032,-1.1662000270000001,-0.9999286567172776,0.01194493514343545,0.9928196312336285,0.11962098410029072
485,-0.5135313869,-0.007286853623000001,0.64953053,-0.04089720175,0.4231500053,0.7799749947,-0.16957499269999998,-2.195200068,-9.398199916,-0.35279998479999997,-0.9999286567172776,-0.01194493514343476,0.989665720153999,0.1433937319134508
486,-0.5108467937,-0.009204446338,0.6244077085999999,-0.1272457391,0.4231500053,0.7799749947,-0.16957499269999998,-2.195200068,-9.398199916,-0.35279998479999997,-0.9993579715324135,-0.03582798814641792,0.9859426615288486,0.16708401532585454
487,-0.5073950886999999,-0.01227259543,0.651461482,-0.26614964010000003,0.336699996,0.8461249733,-0.23047500129999998,-2.655799979,-9.358999836,-0.2744000085,-0.9982169268675024,-0.05969059318853734,0.9816525964545446,0.19067821027598064
488,-0.5035599470000001,-0.0130396327,0.6871781348999999,-0.2461981922,0.336699996,0.8461249733,-0.23047500129999998,-2.655799979,-9.358999836,-0.2744000085,-0.9965061739462903,-0.08351913126299856,0.9767979921075866,0.21416274796188825
489,-0.5027928948,-0.01380666997,0.5434316397,-0.2205706835,0.2215499973,0.8909249973000001,-0.27737500670000004,-2.832200044,-11.50520024,0.2744000085,-0.9942266891397816,-0.10730000280590887,0.971381640325756,0.23752412264450873
490,-0.5016423464,-0.01610778086,0.4657321572,-0.2899779975,0.2215499973,0.8909249973000001,-0.27737500670000004,-2.832200044,-11.50520024,0.2744000085,-0.9913797734089995,-0.13101963545789894,0.9654066560025564,0.2607488994146703
491,-0.5008752942,-0.015724262219999997,0.40004482869999997,-0.19930973649999997,0.1413999987,0.865199976,-0.1216249967,-3.4692000210000002,-13.71999977,0.1469999967,-0.9879670515624934,-0.1546644918102197,0.9588764752958668,0.28382372191938954
492,-0.4989576936,-0.0176418554,0.3965832889,-0.251334399,0.1413999987,0.865199976,-0.1216249967,-3.4692000210000002,-13.71999977,0.1469999967,-0.9839904713290184,-0.17822107713089427,0.9517948536518398,0.30673532004298554
493,-0.4955060482,-0.01917592995,0.4803575575,-0.2692508698,0.09450000167000001,0.7682500267,-0.053199999330000004,-3.283000082,-11.4856005,0.6761999831000001,-0.9794523022459164,-0.20167594706651068,0.9441658636451792,0.3294705175385999
494,-0.49167084689999996,-0.02262759767,0.5520182847999999,-0.3852770329,0.09450000167000001,0.7682500267,-0.053199999330000004,-3.283000082,-11.4856005,0.6761999831000001,-0.9743551343638321,-0.22501571531526104,0.9359938926370399,0.35201623960573386
495,-0.4843840003,-0.02761333995,0.7924051284999999,-0.5470932126,0.0432250005,0.721174984,-0.2026499987,-3.057600063,-11.12299991,0.6369999766,-0.9687018767685047,-0.24822706126685026,0.9272836402518978,0.37435952040944404
496,-0.4736454785,-0.02761333995,0.9610517025,-0.5470932126,0.0432250005,0.721174984,-0.2026499987,-3.057600063,-11.12299991,0.6369999766,-0.9624957559204761,-0.2712967376049173,0.9180401156748393,0.3964875105368739
497,-0.47057732939999997,-0.04755630717,1.028140545,-1.203296781,0.0005249999883000001,0.722225008,-0.170625,-3.8121999860000004,-12.30880041,0.235200002,-0.9557403138136672,-0.2942115778676173,0.9082686347708254,0.41838748438683115
498,-0.4640575051,-0.05599371716,1.141383767,-1.408124566,0.0005249999883000001,0.722225008,-0.170625,-3.8121999860000004,-12.30880041,0.235200002,-0.9484394059538698,-0.3169585039620652,0.8979748170275877,0.4400468474881627
499,-0.4571541846,-0.06788279116,1.20051229,-1.6675629619999999,0.01557499975,0.7649249840000001,-0.012775000330000001,-3.8415998999999994,-11.5836004,-0.5683999836,-0.9405971991583107,-0.339524533628339,0.8871645823239127,0.46145314374271784
500,-0.4494838119,-0.08322353661000001,1.285891771,-1.944468141,0.01557499975,0.7649249840000001,-0.012775000330000001,-3.8415998999999994,-11.5836004,-0.5683999836,-0.9322181691775386,-0.3618967878487981,0.8758441475251753,0.48259406258873416
501,-0.4429639876,-0.09587965161,1.2930158379999999,-2.091289043,0.03587499917,0.7766500187,0.0684250015,-3.5084001000000002,-10.78000023,-1.009400001,-0.9233070981410004,-0.3840624981984638,0.8640200229080763,0.5034574460805274
502,-0.43644416329999997,-0.10930280390000001,1.295653701,-2.242301464,0.03587499917,0.7766500187,0.0684250015,-3.5084001000000002,-10.78000023,-1.009400001,-0.9138690718277542,-0.40600901413229606,0.8516990084166444,0.5240312958804129
503,-0.43107491729999997,-0.1223424375,1.238646269,-2.33468771,0.05495000183999999,0.751099968,0.08872500300000001,-2.773399925,-9.819599748,-1.6561999980000002,-0.9039094767638833,-0.4277238102051867,0.83888818975165,0.544303780158837
504,-0.4257056415,-0.1349985451,1.187695146,-2.385269165,0.05495000183999999,0.751099968,0.08872500300000001,-2.773399925,-9.819599748,-1.6561999980000002,-0.8934339971482675,-0.4491944932205531,0.8255949342956863,0.5642632403987534
505,-0.4199528694,-0.1472711414,1.165749669,-2.400117636,0.0432250005,0.69125,0.01819999933,-2.048200062,-9.486399948999999,-2.361799967,-0.8824486116084631,-0.47040880930345663,0.8118268868762545,0.5838981981003274
506,-0.41458362340000005,-0.1599272639,1.131650448,-2.439460516,0.0432250005,0.69125,0.01819999933,-2.048200062,-9.486399948999999,-2.361799967,-0.8709595897885442,-0.49135465089420993,0.7975919653692958,0.6031973613821134
507,-0.40806379909999996,-0.1714328229,1.1662851570000001,-2.402825594,-0.004725000188,0.608125,-0.038325001000000004,-1.734600011,-9.69220022,-2.704799932,-0.8589734887708558,-0.5120200636584707,0.7828983561456943,0.6221496314749126
508,-0.4038451016,-0.1833218932,1.0673769709999998,-2.4010865690000003,-0.004725000188,0.608125,-0.038325001000000004,-1.734600011,-9.69220022,-2.704799932,-0.8464971493337164,-0.5323932533098928,0.767754509363371,0.6407441091045702
509,-0.39694175119999997,-0.1925263405,1.149735451,-2.250918388,-0.05809999882999999,0.5216749907,-0.04479999900000001,-1.773799944,-9.780400252,-2.812600005,-0.83353769204721,-0.5524625923414278,0.7521691341076772,0.6589701007600475
510,-0.38927137850000004,-0.2036483735,1.254630685,-2.241573334,-0.05809999882999999,0.5216749907,-0.04479999900000001,-1.773799944,-9.780400252,-2.812600005,-0.8201025132092887,-0.5722166266614492,0.7361511933828799,0.67681712484316
511,-0.3831350803,-0.2132363468,1.258446097,-2.162269831,-0.11567500230000001,0.44904999729999995,-0.05215000033,-1.705199951,-9.711799967000001,-2.46960004,-0.8061992806245185,-0.5916440821308947,0.7197098989576222,0.6942749176964478
512,-0.37623175979999995,-0.22397486870000002,1.2956842179999999,-2.164544344,-0.11567500230000001,0.44904999729999995,-0.05215000033,-1.705199951,-9.711799967000001,-2.46960004,-0.7918359292278615,-0.6107338709977113,0.7028547060673199,0.7113334395057085
513,-0.3693284094,-0.2331793159,1.31367135,-2.086899519,-0.163799994,0.39899998659999997,-0.06387500167,-1.6856000569999998,-9.829400206,-2.087399995,-0.7770206565560033,-0.629475098224924,0.6855953079765447,0.7279828800738015
514,-0.362808615,-0.24315080050000001,1.301172495,-2.062508106,-0.163799994,0.39899998659999997,-0.06387500167,-1.6856000569999998,-9.829400206,-2.087399995,-0.7617619180688083,-0.6478570677087117,0.6679416304045172,0.7442136644624011
515,-0.3547547162,-0.2523552477,1.368952751,-2.006679058,-0.1979250073,0.349824996,-0.05652500033,-1.6561999980000002,-9.613800061000001,-1.734600011,-0.7460684223235678,-0.6658692883829546,0.6499038258169183,0.7600164584984543
516,-0.3428656459,-0.2707641423,1.401823878,-2.030393124,-0.1979250073,0.349824996,-0.05652500033,-1.6561999980000002,-9.613800061000001,-1.734600011,-0.7299491260048021,-0.6835014802067554,0.631492267587301,0.7753821741421766
517,-0.33826342229999995,-0.2745993137,1.505008101,-2.017450571,-0.21279999730000002,0.3211250067,-0.03307499975,-1.6561999980000002,-9.300200009,-1.24460004,-0.7134132288124464,-0.7007435800315264,0.6127175440314594,0.7903019747134994
518,-0.3321271241,-0.2818861902,1.447949648,-1.973331094,-0.21279999730000002,0.3211250067,-0.03307499975,-1.6561999980000002,-9.300200009,-1.24460004,-0.6964701682113473,-0.717585747344286,0.593590452318187,0.8047672799739626
519,-0.3233061731,-0.2914741337,1.536210179,-1.957790256,-0.21175000670000002,0.3029249907,-0.02449999958,-1.4895999519999998,-9.388400042,-1.068199974,-0.6791296140450549,-0.7340183698838979,0.5741219922599252,0.8187697710611295
520,-0.317553401,-0.3025961816,1.4381719830000002,-1.929052591,-0.21175000670000002,0.3029249907,-0.02449999958,-1.4895999519999998,-9.388400042,-1.068199974,-0.6614014630169917,-0.7500320691270361,0.5543233599868743,0.8323013952726873
521,-0.3118006289,-0.3102665544,1.352822542,-1.821750045,-0.2106999993,0.2815750027,0.010675000249999999,-1.303400013,-9.055200243,-1.303400013,-0.6432958330421495,-0.7656177056407505,0.5342059415082019,0.8453543706974818
522,-0.30489727850000004,-0.3183204532,1.354867101,-1.758165121,-0.2106999993,0.2815750027,0.010675000249999999,-1.303400013,-9.055200243,-1.303400013,-0.6248230574725345,-0.7807663842985774,0.5137813061640563,0.8579211906908212
523,-0.2976104319,-0.3252237737,1.385581374,-1.651660919,-0.207549994,0.26337500329999997,0.025725000499999998,-1.25440006,-8.849399972,-1.283799973,-0.6059936791996504,-0.7954694593572221,0.49306119997214554,0.8699946281914779
524,-0.2933917344,-0.33174359800000003,1.249370337,-1.561895251,-0.207549994,0.26337500329999997,0.025725000499999998,-1.25440006,-8.849399972,-1.283799973,-0.5868184446374018,-0.809718539390905,0.47205753887271307,0.8815677398779047
525,-0.2880224884,-0.3378798962,1.1971668,-1.469469428,-0.2106999993,0.2526999927,0.02467499942,-1.2054000329999999,-8.575,-1.6365999580000001,-0.5673082975888384,-0.8235054920805653,0.45078240187579044,0.8926338701612736
526,-0.2807356119,-0.3424821198,1.260172367,-1.326089144,-0.2106999993,0.2526999927,0.02467499942,-1.2054000329999999,-8.575,-1.6365999580000001,-0.5474743730002386,-0.8368224488551892,0.42924802411467144,0.9031866550130435
527,-0.2749828398,-0.34708434340000005,1.2527179720000001,-1.222453594,-0.21175000670000002,0.2367749953,0.02257499933,-1.362199986,-8.46720022,-1.92079995,-0.5273279906061085,-0.849661809382606,0.40746678980960094,0.9132200256248537
528,-0.2711476684,-0.35130304100000004,1.131916523,-1.130707741,-0.21175000670000002,0.2367749953,0.02257499933,-1.362199986,-8.46720022,-1.92079995,-0.5068806484687185,-0.8620162459071936,0.38545122514572466,0.9227282118986392
529,-0.26654544469999997,-0.3551382422,1.0707193609999999,-1.038914442,-0.21279999730000002,0.2325749993,0.010675000249999999,-1.617000064,-8.633799827,-1.91099993,-0.4861440164158625,-0.8738787074320175,0.3632139910693973,0.9317057457649598
530,-0.2619432211,-0.3562887907,1.0148329729999999,-0.8333213329000001,-0.21279999730000002,0.2325749993,0.010675000249999999,-1.617000064,-8.633799827,-1.91099993,-0.4651299293805775,-0.8852424237430213,0.340767876006989,0.940147464327637
531,-0.2569574714,-0.35974046590000003,1.006843567,-0.7910111546999999,-0.20964999199999998,0.22400000329999997,0.0075250001249999995,-1.6561999980000002,-8.663200032999999,-1.783599964,-0.44385038064664917,-0.8961009092729594,0.31812578851038165,0.9480485128328866
532,-0.2523552477,-0.3608910143,0.9766501188,-0.6320971847,-0.20964999199999998,0.22400000329999997,0.0075250001249999995,-1.6561999980000002,-8.663200032999999,-1.783599964,-0.4223175150037288,-0.9064479668028801,0.2953007498333806,0.9554043474612428
533,-0.2466024607,-0.3647261858,1.027150631,-0.6665895581,-0.2148999953,0.22067499399999999,-0.004199999906,-1.303400013,-9.045399785,-1.420999959,-0.40054362181599257,-0.9162776909990372,0.272305886443312,0.9622107379406666
534,-0.24315080050000001,-0.3658767641,0.9508693814,-0.5593869686,-0.2148999953,0.22067499399999999,-0.004199999906,-1.303400013,-9.045399785,-1.420999959,-0.37854112800827466,-0.9255844717832203,0.24915442247211358,0.9684637699793357
535,-0.2377815396,-0.36549323799999994,0.9929698109999999,-0.40055710079999995,-0.1851499987,0.227149992,-0.003150000125,-1.283799973,-8.486799967,-1.24460004,-0.3563225909737077,-0.9343629975345684,0.22585967211126068,0.9741598475167172
536,-0.2312617153,-0.36549323799999994,0.8947965503,-0.40055710079999995,-0.1851499987,0.227149992,-0.003150000125,-1.283799973,-8.486799967,-1.24460004,-0.333900691406889,-0.9426082581210508,0.20243503195489757,0.9792956947916291
537,-0.2301111668,-0.36549323799999994,0.8574647903,-0.2147139609,-0.14875,0.21857499600000002,-0.06492500067000001,-0.9016000018000001,-8.359399855,-1.136799967,-0.31128822606668066,-0.9503155477588795,0.17889397329558107,0.9838683582260992
538,-0.2251254171,-0.3658767641,0.9522998333,-0.1822543591,-0.14875,0.21857499600000002,-0.06492500067000001,-0.9016000018000001,-8.359399855,-1.136799967,-0.2884981004727677,-0.9574804676982214,0.15525003437706575,0.987875208123941
539,-0.2224407941,-0.36510971189999997,0.8417330384,-0.10648045689999999,-0.113574996,0.216474998,-0.06930000067000001,-1.264199933,-8.496599841,-1.175999974,-0.2655433215401438,-0.9640989287336792,0.13151681260858566,0.9913139401830674
540,-0.2189891189,-0.3647261858,0.8028566837000001,-0.05268488824,-0.113574996,0.216474998,-0.06930000067000001,-1.264199933,-8.496599841,-1.175999974,-0.242436990155728,-0.9701671535381062,0.10770795674511112,0.9941825768206729
541,-0.2132363468,-0.36510971189999997,0.8857001662,-0.05296332017,-0.07087500333999999,0.2292500067,-0.07034999967,-1.342599946,-8.614200079,-1.156400007,-0.21919229370134893,-0.9756816788184257,0.0838371590380767,0.9964794683105238
542,-0.20940116050000002,-0.36434268950000004,0.8584623337,-0.0001061484218,-0.07087500333999999,0.2292500067,-0.07034999967,-1.342599946,-8.614200079,-1.156400007,-0.1958224985273648,-0.980639357292221,0.05991814736109418,0.9982032937316998
543,-0.2028813362,-0.36395916340000006,0.9890624881,0.0309228152,-0.03465000033,0.23782500269999998,-0.07455000401,-1.136799967,-8.810199893,-0.882000035,-0.17234094238121428,-0.9850373594839715,0.03596467731518136,0.9993530617282437
544,-0.2009637505,-0.36395916340000006,0.8395348190999999,0.020877297969999997,-0.03465000033,0.23782500269999998,-0.07455000401,-1.136799967,-8.810199893,-0.882000035,-0.1487610267952142,-0.9888731753399086,0.011990524318043143,0.9999281110792807
545,-0.1955944896,-0.3635756373,0.8984005451,0.030560748650000004,-0.0005249999883000001,0.24097500800000002,-0.084174999,-1.058400027,-9.065000117,-0.6566000164,-0.1250962094379667,-0.9921446156605661,-0.0119905243180428,0.9999281110792807
546,-0.1917593032,-0.3631921113,0.8627168535999999,0.038966689260000006,-0.0005249999883000001,0.24097500800000002,-0.084174999,-1.058400027,-9.065000117,-0.6566000164,-0.10135999643371137,-0.9948498133502152,-0.035964677315181014,0.9993530617282437
547,-0.1867735684,-0.3620415628,0.9067916274,0.08515311778,0.03587499917,0.2367749953,-0.090649997,-0.9995999812999999,-9.15320015,-0.6958000228,-0.07756593465403101,-0.9969872244824638,-0.05991814736109384,0.9982032937316998
548,-0.18178781870000002,-0.36050748829999996,0.9310367106999999,0.136080265,0.03587499917,0.2367749953,-0.090649997,-0.9995999812999999,-9.15320015,-0.6958000228,-0.053727603986304794,-0.9985556291814146,-0.08383715903807638,0.9964794683105238
549,-0.1775691211,-0.3578228652,0.9194820523,0.24618974329999999,0.066674999,0.22400000329999997,-0.1055250037,-0.9995999812999999,-9.084599864,-0.9016000018000001,-0.029858609583314693,-0.9995541323178806,-0.10770795674511101,0.994182576820673
550,-0.174500972,-0.3562887907,0.8438138366,0.2499964088,0.066674999,0.22400000329999997,-0.1055250037,-0.9995999812999999,-9.084599864,-0.9016000018000001,-0.0059725740984289165,-0.9999821640202583,-0.13151681260858555,0.9913139401830674
551,-0.1698987484,-0.35437119009999996,0.8544254899,0.27540105579999996,0.08382499933,0.20370000600000002,-0.1109500027,-1.293599993,-8.957199752000001,-1.372000006,0.017916870089199267,-0.9998394799997682,-0.15525003437706564,0.9878752081239411
552,-0.1645294875,-0.3516865671,0.9076928496,0.34818455579999996,0.08382499933,0.20370000600000002,-0.1109500027,-1.293599993,-8.957199752000001,-1.372000006,0.04179608865497987,-0.9991261616898764,-0.17889397329558077,0.9838683582260993
553,-0.1599272639,-0.35130304100000004,0.9122287631,0.2842384279,0.09029999732999999,0.17815000530000002,-0.1492749953,-1.048600008,-9.172799897,-1.2054000329999999,0.0656514531103475,-0.9978426161998193,-0.20243503195489723,0.9792956947916291
554,-0.1557085514,-0.35130304100000004,0.9010869861,0.2082489878,0.09029999732999999,0.17815000530000002,-0.1492749953,-1.048600008,-9.172799897,-1.2054000329999999,0.08946934858090075,-0.9959895760822546,-0.22585967211126037,0.9741598475167174
555,-0.151873365,-0.3497689664,0.8715928197,0.22313229739999998,0.109375,0.1365000033,-0.1588999987,-0.9114000216,-9.329600215,-1.577799985,0.11323618157675487,-0.9935680989151756,-0.24915442247211325,0.9684637699793357
556,-0.151873365,-0.3497689664,0.8715928197,0.22313229739999998,0.109375,0.1365000033,-0.1588999987,-0.9114000216,-9.329600215,-1.577799985,0.1369383877507038,-0.9905795666983233,-0.27230588644331166,0.9622107379406667
557,-0.1396007687,-0.3493854403,0.9592587351999999,0.1240029261,0.114799999,0.07349999666,-0.1568000007,-1.352399966,-9.682399762000001,-1.901200056,0.16056243963973924,-0.9870256850644441,-0.2953007498333805,0.9554043474612428
558,-0.1380666941,-0.3478513658,0.8883414268000001,0.1775384843,0.114799999,0.07349999666,-0.1568000007,-1.352399966,-9.682399762000001,-1.901200056,0.18409485438553289,-0.9829084823058398,-0.3181257885103816,0.9480485128328866
559,-0.1330809593,-0.345933795,0.9196041226,0.2358738184,0.1275749993,0.01487500042,-0.124775002,-1.617000064,-9.555000234,-1.724799991,0.20752220142944425,-0.9782303082167702,-0.3407678760069889,0.940147464327637
560,-0.1269446611,-0.34670081729999996,0.9634987116,0.13808812199999998,0.1275749993,0.01487500042,-0.124775002,-1.617000064,-9.555000234,-1.724799991,0.23083111017769264,-0.9729938327523633,-0.36321399106939717,0.9317057457649598
561,-0.12426003070000001,-0.3447832167,0.90843153,0.1993535459,0.146825006,-0.02362500042,-0.1630999947,-1.499399972,-9.123799944,-1.499399972,0.25400827763230055,-0.9672020445048036,-0.38545122514572433,0.9227282118986393
562,-0.120808363,-0.3417150676,0.8553243279,0.30972510579999996,0.146825006,-0.02362500042,-0.1630999947,-1.499399972,-9.123799944,-1.499399972,0.2770404759834591,-0.9608582489976648,-0.4074667898096006,0.9132200256248538
563,-0.1169731766,-0.3397974968,0.8316228986,0.3275422454,0.17552499530000001,-0.07909999967,-0.23047500129999998,-1.558199945,-8.457399762,-1.097600034,0.2999145601589819,-0.9539660667993618,-0.42924802411467117,0.9031866550130436
564,-0.1119874343,-0.3374963701,0.8179930448999999,0.3477558196,0.17552499530000001,-0.07909999967,-0.23047500129999998,-1.558199945,-8.457399762,-1.097600034,0.32261747532653795,-0.9465294314567988,-0.45078240187579033,0.8926338701612736
565,-0.1073852107,-0.3374963701,0.8524026870999999,0.24483515320000002,0.16169999599999998,-0.14,-0.3701249933,-1.077999994,-8.927800131,-0.6761999831000001,0.34513626434438294,-0.9385525872503917,-0.47205753887271273,0.8815677398779048
566,-0.103933543,-0.3386469185,0.7963092923,0.12997689839999998,0.16169999599999998,-0.14,-0.3701249933,-1.077999994,-8.927800131,-0.6761999831000001,0.3674580751563354,-0.9300400867717482,-0.49306119997214537,0.869994628191478
567,-0.09779724479,-0.3397974968,0.912545085,0.04624782875,0.14472500800000002,-0.1741249967,-0.35735000130000005,-1.5091999919999999,-8.623999953,-0.8623999953,0.38957016812677825,-0.9209967883253849,-0.5137813061640558,0.8579211906908214
568,-0.09434557706,-0.3386469185,0.9138404131,0.09177391231000001,0.14472500800000002,-0.1741249967,-0.35735000130000005,-1.5091999919999999,-8.623999953,-0.8623999953,0.41145992331149855,-0.9114278531559674,-0.5342059415082018,0.845354370697482
569,-0.08897631615,-0.33826342229999995,0.9577355384999999,0.08662039042000001,0.151025002,-0.18375,-0.5057499933,-0.9603999749,-8.379000187,-1.303400013,0.433114847660217,-0.9013387425026548,-0.554323359986874,0.8323013952726875
570,-0.08284001797,-0.3397974968,0.9928714633,-0.014563892040000002,0.151025002,-0.18375,-0.5057499933,-0.9603999749,-8.379000187,-1.303400013,0.45452258214669405,-0.8907352144822286,-0.5741219922599248,0.8187697710611297
571,-0.07708723843,-0.3413315713,1.041414499,-0.08604416251000001,0.1361500037,-0.23169999600000002,-0.576099968,-0.7545999959,-8.133999836000001,-0.8428000286,0.47567090882235064,-0.8796233208027848,-0.5935904523181867,0.8047672799739627
572,-0.07056742162,-0.3440161943,1.104579091,-0.1975568682,0.1361500037,-0.23169999600000002,-0.576099968,-0.7545999959,-8.133999836000001,-0.8428000286,0.49654775778935967,-0.8680094033098716,-0.612717544031459,0.7903019747134997
573,-0.06443112344,-0.348618418,1.198020935,-0.3924025297,0.09450000167000001,-0.23275000329999998,-0.7799749947,-0.6369999766,-8.055600262,-1.479799932,0.5171412140892577,-0.8559000903670291,-0.6314922675873008,0.7753821741421767
574,-0.05676075444,-0.35437119009999996,1.285022259,-0.5973193645,0.09450000167000001,-0.23275000329999998,-0.7799749947,-0.6369999766,-8.055600262,-1.479799932,0.5374395245031153,-0.8433022930728135,-0.649903825816918,0.7600164584984546
575,-0.04909038171,-0.3620415628,1.2742476459999998,-0.8001664877,0.01557499975,-0.2786000013,-0.784175024,-0.37239998799999996,-9.65300014,-1.675800037,0.5574311042594079,-0.8302232013164514,-0.6679416304045169,0.7442136644624013
576,-0.03451667354,-0.3620415628,1.390402675,-0.8001664877,0.01557499975,-0.2786000013,-0.784175024,-0.37239998799999996,-9.65300014,-1.675800037,0.5771045436457383,-0.8166702796743888,-0.6855953079765447,0.7279828800738015
577,-0.029914451760000006,-0.3804504573,1.493556976,-1.221180081,-0.021875,-0.2658249927,-0.7073499679999999,-0.49979999070000003,-9.36879971,-2.185400048,0.5964486145206606,-0.8026512631500585,-0.7028547060673197,0.7113334395057086
578,-0.02454519086,-0.38697028159999997,1.4602235559999999,-1.311461687,-0.021875,-0.2658249927,-0.7073499679999999,-0.49979999070000003,-9.36879971,-2.185400048,0.6154522767218717,-0.7881741527593153,-0.7197098989576218,0.694274917696448
579,-0.01879241131,-0.3950241506,1.448551416,-1.392378211,-0.07192500234,-0.2744000053,-0.7544250106999999,0.4410000175,-9.486399948999999,-2.459799874,0.6341046843671145,-0.77324721096405,-0.7361511933828796,0.6768171248431605
580,-0.008437409066,-0.40346157549999995,1.534685493,-1.472039342,-0.07192500234,-0.2744000053,-0.7544250106999999,0.4410000175,-9.486399948999999,-2.459799874,0.6523951920442028,-0.7578789569565892,-0.752169134107677,0.6589701007600477
581,-0.001150555792,-0.4099813998,1.528256536,-1.4310951230000002,-0.08697499633,-0.3213000107,-0.708399992,0.39199999119999995,-10.06459951,-2.273599935,0.670313360886641,-0.7420781617975669,-0.7677545093633708,0.6407441091045706
582,0.005752779078,-0.41573417189999995,1.4976627830000002,-1.3487207890000001,-0.08697499633,-0.3213000107,-0.708399992,0.39199999119999995,-10.06459951,-2.273599935,0.6878489645313475,-0.725853843410058,-0.7828983561456941,0.6221496314749129
583,0.01380666997,-0.421486944,1.5426818130000002,-1.2917785640000001,-0.08697499633,-0.3874499893,-0.7020999813,1.0192000209999998,-10.05480022,-2.097200015,0.7049919949551103,-0.7092152614328133,-0.7975919653692958,0.6031973613821134
584,0.01879241131,-0.4257056415,1.4184916019999998,-1.176477194,-0.08697499633,-0.3874499893,-0.7020999813,1.0192000209999998,-10.05480022,-2.097200015,0.7217326681864202,-0.692171911935547,-0.8118268868762544,0.5838981981003275
585,0.02492870949,-0.43030786509999996,1.355635643,-1.1043362620000001,-0.06877500117,-0.467424984,-0.7063000106999999,0.6174000099,-10.27039979,-2.263800061,0.7380614298894437,-0.6747335219992777,-0.8255949342956863,0.5642632403987534
586,0.031832043080000004,-0.4345265925,1.3541146519999998,-1.0385731459999998,-0.06877500117,-0.467424984,-0.7063000106999999,0.6174000099,-10.27039979,-2.263800061,0.7539689608169233,-0.6569100441648374,-0.8388881897516498,0.5443037801588374
587,0.04026945308,-0.438361764,1.450685143,-0.9686662555,-0.04637500166999999,-0.5272749853,-0.6893249893000001,0.7938000023,-10.70160007,-1.9893999430000002,0.7694461821289169,-0.6387116507526958,-0.8516990084166441,0.5240312958804131
588,0.04525519535,-0.44142991299999995,1.334696174,-0.8744509220000001,-0.04637500166999999,-0.5272749853,-0.6893249893000001,0.7938000023,-10.70160007,-1.9893999430000002,0.7844842605743255,-0.6201487280573538,-0.8640200229080763,0.5034574460805276
589,0.05254204944,-0.44564861060000005,1.3654781580000002,-0.8626672626,-0.030275000330000003,-0.5752249813,-0.6231750107,0.8330000087999999,-10.78979952,-1.93059997,0.7990746135322593,-0.6012318704196166,-0.875844147525175,0.48259406258873444
590,0.05906186625,-0.4483332634,1.3618110419999998,-0.7734655142,-0.030275000330000003,-0.5752249813,-0.6231750107,0.8330000087999999,-10.78979952,-1.93059997,0.8132089139103609,-0.5819718741801283,-0.8871645823239127,0.46145314374271784
591,0.06558167933999999,-0.4514014125,1.3489997390000001,-0.720644176,-0.013299999830000001,-0.6105749893,-0.5580749893,0.882000035,-10.63300037,-1.74440003,0.8268790948972937,-0.5623797315176218,-0.8979748170275876,0.4400468474881629
592,0.07286853343,-0.45178490880000005,1.386085033,-0.5637826920000001,-0.013299999830000001,-0.6105749893,-0.5580749893,0.882000035,-10.63300037,-1.74440003,0.8400773545666786,-0.5424666241753965,-0.9082686347708254,0.41838748438683115
593,0.07862131298,-0.45063436030000004,1.329054475,-0.3740007579,0.01557499975,-0.6254500293999999,-0.555800004,0.6664000362,-10.41739964,-1.136799967,0.8527961603298571,-0.5222439170796082,-0.9180401156748392,0.3964875105368741
594,0.08475761116000001,-0.4502508342,1.304560423,-0.23539943989999998,0.01557499975,-0.6254500293999999,-0.555800004,0.6664000362,-10.41739964,-1.136799967,0.8650282532349327,-0.5017231518530124,-0.9272836402518978,0.37435952040944404
595,0.09127742797,-0.4510178864,1.303418398,-0.2139438689,0.03149999917,-0.6457500267,-0.5281500053,1.058400027,-10.54479976,-0.7839999825,0.8767666521096465,-0.4809160402278573,-0.9359938926370398,0.35201623960573397
596,0.1020159498,-0.4510178864,1.2390115259999999,-0.2139438689,0.03149999917,-0.6457500267,-0.5281500053,1.058400027,-10.54479976,-0.7839999825,0.8880046575457073,-0.45983445736170203,-0.9441658636451791,0.3294705175386003
597,0.1050840989,-0.4533189833,1.188473701,-0.2215849161,0.06142499982999999,-0.622300024,-0.4779249907,1.0878000140000001,-10.82900019,-0.3626000047,0.898735855722323,-0.43849043505994956,-0.9517948536518398,0.30673532004298565
598,0.1112203971,-0.45485305789999997,1.335485578,-0.2605553269,0.06142499982999999,-0.622300024,-0.4779249907,1.0878000140000001,-10.82900019,-0.3626000047,0.9089541220667307,-0.41689615490898807,-0.9588764752958667,0.28382372191938987
599,0.1169731766,-0.45792120700000005,1.2953174109999999,-0.3555117846,0.062474998829999996,-0.586950016,-0.3914750147,1.2054000329999999,-11.05440021,-0.2744000085,0.9186536247496517,-0.3950639413238393,-0.9654066560025563,0.2607488994146704
600,0.1223424375,-0.4602223337,1.248071551,-0.3779597878,0.062474998829999996,-0.586950016,-0.3914750147,1.2054000329999999,-11.05440021,-0.2744000085,0.9278288280136646,-0.37300625451430386,-0.9713816403257559,0.237524122644509
601,0.1277116984,-0.4621399343,1.199413896,-0.37324512,0.05827499866,-0.515549984,-0.2505999947,1.009400001,-10.94659984,-0.19599999559999998,0.9364744953326072,-0.3507356833735893,-0.9767979921075866,0.2141627479618883
602,0.1326974332,-0.46290695670000004,1.146285415,-0.3204150796,0.05827499866,-0.515549984,-0.2505999947,1.009400001,-10.94659984,-0.19599999559999998,0.9445856924001985,-0.3282649382935034,-0.9816525964545445,0.1906782102759809
603,0.1384502202,-0.4613728821,1.163539886,-0.1506934911,0.062474998829999996,-0.428049984,-0.164325006,1.1662000270000001,-10.54479976,0.048999998899999994,0.9521577899461731,-0.30560684391030796,-0.9859426615288485,0.167084015325855
604,0.1419018805,-0.460989356,1.048998237,-0.09810438752,0.062474998829999996,-0.428049984,-0.164325006,1.1662000270000001,-10.54479976,0.048999998899999994,0.9591864663783257,-0.28277433178536726,-0.9896657201539989,0.14339373191345103
605,0.1468876302,-0.460989356,1.0438486340000002,-0.0623097904,0.06142499982999999,-0.362949996,-0.1375500023,1.097600034,-10.68200033,-0.24500000370000002,0.9656677102489585,-0.25978043302476356,-0.9928196312336284,0.11962098410029115
606,0.1499557793,-0.45983880759999995,0.9471271634,0.025264376769999996,0.06142499982999999,-0.362949996,-0.1375500023,1.097600034,-10.68200033,-0.24500000370000002,0.9715978225443146,-0.23663827084211586,-0.9954025809828264,0.09577944337240511
607,0.1514898539,-0.4571541846,0.7847499251000001,0.1571315676,0.07525000334,-0.2999499893,-0.053199999330000004,0.8428000286,-10.75060003,-0.35279998479999997,0.9769734187957038,-0.21336105306881661,-0.9974130839712297,0.0718828207779896
608,0.1545580029,-0.45562011,0.7427673936,0.1920506954,0.07525000334,-0.2999499893,-0.053199999330000004,0.8428000286,-10.75060003,-0.35279998479999997,0.9817914310111043,-0.18996206461598572,-0.9988499839772803,0.04794485904230831
609,0.1568591148,-0.45370250939999995,0.6675214171,0.2306669652,0.09764999866,-0.2392250013,0.058799998160000005,0.9211999685,-10.77019978,-0.7545999959,0.9860491094261478,-0.16645465989241875,-0.9997124546531568,0.023979324664382122
610,0.160310775,-0.4494838119,0.6674264669,0.3881931305,0.09764999866,-0.2392250013,0.058799998160000005,0.9211999685,-10.77019978,-0.7545999959,0.9897440240734787,-0.14285225518288874,-1.0,1.2246467991473532e-16
611,0.1614613384,-0.4429639876,0.5559920669,0.6189056635,0.1265250003,-0.192149992,0.1952999973,0.5683999836,-10.34879994,-0.4214000143,0.992874066169601,-0.11916832099112051,-0.9997124546531568,-0.023979324664381435
612,0.1610778123,-0.436060667,0.38416615130000004,0.8179359436,0.1265250003,-0.192149992,0.1952999973,0.5683999836,-10.34879994,-0.4214000143,0.995437449318415,-0.09541637435182626,-0.9988499839772803,-0.04794485904230806
613,0.1614613384,-0.4276232421,0.2975414991,1.046764612,0.17675000670000002,-0.1410500073,0.21665000199999998,0.9016000018000001,-9.897999907,-0.7252000093000001,0.9974327105307602,-0.07160997111618363,-0.9974130839712299,-0.07188282077798891
614,0.1610778123,-0.4180352688,0.1993974298,1.212502837,0.17675000670000002,-0.1410500073,0.21665000199999998,0.9016000018000001,-9.897999907,-0.7252000093000001,0.9988587110593807,-0.04776269821516035,-0.9954025809828264,-0.09577944337240486
615,0.1610778123,-0.40806379909999996,0.1444345415,1.417027593,0.2374749947,-0.1452500033,0.268974998,0.9898000345,-10.05480022,-1.273999953,0.9997146370488382,-0.02388816590510082,-0.9928196312336285,-0.11962098410029046
616,0.1618448496,-0.40806379909999996,0.1242344826,1.417027593,0.2374749947,-0.1452500033,0.268974998,0.9898000345,-10.05480022,-1.273999953,1.0,-2.4492935982947064e-16,-0.989665720153999,-0.14339373191345037
617,0.1599272639,-0.3839021325,-0.002042897046,1.733877778,0.2749250007,-0.1538249993,0.34160000799999996,0.8525999755,-9.388400042,-1.283799973,1.0,0.0,-0.9859426615288486,-0.16708401532585435
618,0.1614613384,-0.37623175979999995,0.08118451387,1.875254154,0.2749250007,-0.1538249993,0.34160000799999996,0.8525999755,-9.388400042,-1.283799973,0.9996738360808564,0.025538626732559945,-0.9816525964545446,-0.19067821027598025
619,0.1606943011,-0.36626026030000003,0.022031622009999998,1.919739008,0.297324996,-0.1452500033,0.37134998799999996,0.8428000286,-9.104200196,-1.352399966,0.99869555708923,0.05106059390795061,-0.9767979921075866,-0.2141627479618881
620,0.1610778123,-0.3559052646,0.03720878065,1.9631055590000002,0.297324996,-0.1452500033,0.37134998799999996,0.8428000286,-9.104200196,-1.352399966,0.9970658011837404,0.07654925283649565,-0.9713816403257561,-0.23752412264450834
621,0.1595437378,-0.3440161943,-0.0631005466,2.071204185,0.3174499893,-0.14629999400000002,0.40774998659999995,0.9800000146,-9.00620029,-1.352399966,0.9947856314995347,0.10198797655641535,-0.9654066560025564,-0.26074889941467017
622,0.1595437378,-0.33174359800000003,-0.06361365318,2.1718883509999998,0.3174499893,-0.14629999400000002,0.40774998659999995,0.9800000146,-9.00620029,-1.352399966,0.9918565354547737,0.12736017068005673,-0.9588764752958668,-0.2838237219193892
623,0.160310775,-0.3190874755,-0.006618885323,2.271239758,0.3346000147,-0.1517250013,0.42052501200000003,0.6467999965,-8.604400206000001,-1.1662000270000001,0.9882804237803485,0.1526492842188745,-0.9517948536518399,-0.3067353200429854
624,0.1591602266,-0.3079654276,-0.060338638720000004,2.251429081,0.3346000147,-0.1517250013,0.42052501200000003,0.6467999965,-8.604400206000001,-1.1662000270000001,0.9840596292734571,0.17783882038010168,-0.9441658636451793,-0.3294705175385996
625,0.1564755887,-0.29492580890000003,-0.20260238649999998,2.3327207569999997,0.345274992,-0.14,0.398125,-1.146599987,-8.192800248,-1.5484000709999999,0.9791969052758561,0.2029123473280668,-0.93599389263704,-0.35201623960573336
626,0.1580096632,-0.2822696865,-0.07593069226,2.37973237,0.345274992,-0.14,0.398125,-1.146599987,-8.192800248,-1.5484000709999999,0.9736954238777791,0.22785350890313757,-0.9272836402518979,-0.3743595204094438
627,0.1568591148,-0.275749892,-0.1128657088,2.095039129,0.345274992,-0.09502499699999999,0.168700006,-3.380999988,-8.202600121,-1.91099993,0.9675587738486936,0.2526460352912995,-0.9180401156748395,-0.3964875105368735
628,0.1560920775,-0.26692894100000003,-0.1310990155,2.030436516,0.345274992,-0.09502499699999999,0.168700006,-3.380999988,-8.202600121,-1.91099993,0.9607909582962477,0.2772737536374079,-0.9082686347708255,-0.41838748438683093
629,0.1557085514,-0.2596420944,-0.125350982,1.875684023,0.22470000269999998,-0.07052500367,-0.12057499769999999,-6.193600285,-9.731399715,-0.2548000053,0.9533963920549305,0.30172059859519235,-0.897974817027588,-0.44004684748816236
630,0.15225689109999999,-0.2527387738,-0.2763370574,1.7395796780000001,0.22470000269999998,-0.07052500367,-0.12057499769999999,-6.193600285,-9.731399715,-0.2548000053,0.9453798988061534,0.3259706228071284,-0.8871645823239128,-0.4614531437427177
631,0.1507228166,-0.2496706098,-0.290586412,1.4437202219999998,-0.11567500230000001,-0.03639999866,-0.4844000053,-4.988200033,-15.57219987,2.9791999039999997,0.9367467079316278,0.3500080073073436,-0.8758441475251754,-0.4825940625887339
632,0.1472711414,-0.2515881956,-0.3992162347,0.9558579326000001,-0.11567500230000001,-0.03639999866,-0.4844000053,-4.988200033,-15.57219987,2.9791999039999997,0.9275024511020946,0.3738170718407688,-0.8640200229080763,-0.5034574460805274
633,0.1465041041,-0.2561904192,-0.3345814049,0.4184874296,-0.602349968,-0.025725000499999998,-0.38412501340000005,-1.646399978,-20.43300037,5.664400089,0.917653158603628,0.3973822850918053,-0.8516990084166445,-0.5240312958804125
634,0.1438194811,-0.26040914649999997,-0.38996338840000005,0.09321530162999998,-0.602349968,-0.025725000499999998,-0.38412501340000005,-1.646399978,-20.43300037,5.664400089,0.9072052554039121,0.42068827481583415,-0.8388881897516504,-0.5443037801588365
635,0.14036780599999998,-0.2676959932,-0.465206176,-0.3189456463,-0.7442749786,0.06282499849999999,-0.048999999169999996,-0.6761999831000001,-11.86779966,4.547199869,0.8961655569610556,0.44371983786695973,-0.8255949342956864,-0.5642632403987532
636,0.1254105866,-0.2676959932,-0.9910422564,-0.3189456463,-0.7442749786,0.06282499849999999,-0.048999999169999996,-0.6761999831000001,-11.86779966,4.547199869,0.8845412647776794,0.46646195011544433,-0.8118268868762548,-0.583898198100327
637,0.1200413257,-0.2815026641,-1.186704636,-0.7377071381,-0.572424984,0.284725008,-0.02117500067,0.8428000286,-10.18220034,0.9898000345,0.872339961703175,0.48889977624836695,-0.797591965369296,-0.6031973613821133
638,0.1100698411,-0.2830367386,-1.4693195819999998,-0.6751689911,-0.572424984,0.284725008,-0.02117500067,0.8428000286,-10.18220034,0.9898000345,0.8595696069872012,0.5110186794471103,-0.7828983561456946,-0.6221496314749123
639,0.09434557706,-0.283803761,-1.9238029719999998,-0.5454925299,-0.2203250027,0.3391499853,0.20597500800000001,0.9309999883,-9.319799757,-0.6075999901,0.846238531087644,0.5328042309353658,-0.7677545093633709,-0.6407441091045705
640,0.07938835025,-0.2880224884,-2.212896347,-0.6226437688,-0.2203250027,0.3391499853,0.20597500800000001,0.9309999883,-9.319799757,-0.6075999901,0.8323554302364271,0.5542422193914248,-0.7521691341076775,-0.6589701007600471
641,0.06328056753,-0.2891730368,-2.485241652,-0.5145773888,0.004900000021,0.280525012,0.302050004,1.5190000119999998,-9.93720057,-2.557800072,0.8179293607667176,0.5753186602186207,-0.7361511933828797,-0.6768171248431603
642,0.0479398258,-0.2880224884,-2.640646696,-0.3250101805,0.004900000021,0.280525012,0.302050004,1.5190000119999998,-9.93720057,-2.557800072,0.8029697332052275,0.5960198046678699,-0.7197098989576224,-0.6942749176964476
643,0.03221556172,-0.2834202647,-2.777379274,0.004403881729,0.112700001,0.21,0.2721250033,-0.5488000169,-9.94699986,-4.939200079,0.7874863061334656,0.6163321488063638,-0.7028547060673203,-0.711333439505708
644,0.01802537404,-0.27881804109999997,-2.79272294,0.248485893,0.112700001,0.21,0.2721250033,-0.5488000169,-9.94699986,-4.939200079,0.7714891798219429,0.6362424423265599,-0.6855953079765449,-0.7279828800738013
645,0.0015340744279999999,-0.2722982168,-2.76730752,0.5284513831000001,0.11042499900000001,0.1545249987,0.05670000017000001,-1.6267999380000002,-10.93680055,-5.419399737999999,0.7549887896414851,0.6557376971897265,-0.6679416304045176,-0.7442136644624009
646,-0.009971483611,-0.26692894100000003,-2.790980577,0.6693335772,0.11042499900000001,0.1545249987,0.05670000017000001,-1.6267999380000002,-10.93680055,-5.419399737999999,0.7379958992559492,0.6748051960984022,-0.6499038258169185,-0.7600164584984541
647,-0.02492870949,-0.2577244937,-2.70462513,0.9785907268999999,0.005950000063,0.02222499967,-0.055475001339999996,-2.646000105,-12.62239988,-4.017999965,0.7205215936007869,0.6934325007922417,-0.6314922675873014,-0.7753821741421763
648,-0.03528371081,-0.2515881956,-2.6865341660000004,1.040109515,0.005950000063,0.02222499967,-0.055475001339999996,-2.646000105,-12.62239988,-4.017999965,0.702577271652032,0.7116074601618416,-0.6127175440314593,-0.7903019747134995
649,-0.04602223262,-0.2427672744,-2.543668509,1.222843289,-0.1231999993,-0.1623999953,-0.0607250005,-2.7832000910000003,-12.38720057,-1.499399972,0.6841746389904304,0.7293182181752449,-0.593590452318187,-0.8047672799739626
650,-0.05982890352999999,-0.2339463532,-2.5922939780000003,1.361538649,-0.1231999993,-0.1623999953,-0.0607250005,-2.7832000910000003,-12.38720057,-1.499399972,0.6653257001655655,0.7465532216119626,-0.5741219922599254,-0.8187697710611292
651,-0.07708723843,-0.2262759805,-2.678411245,1.412646413,-0.1935500073,-0.336174984,-0.12372500300000001,-2.244200021,-12.11279943,1.273999953,0.6460427508649544,0.7633012275994597,-0.5543233599868747,-0.8323013952726872
652,-0.09242798388000001,-0.2197561562,-2.779885769,1.387301445,-0.1935500073,-0.336174984,-0.12372500300000001,-2.244200021,-12.11279943,1.273999953,0.6263383698932306,0.7795513109471952,-0.5342059415082024,-0.8453543706974815
653,-0.10623465480000001,-0.213619858,-2.9251275060000004,1.347425699,-0.17657500269999998,-0.43434999469999996,-0.02345000058,-2.6165999,-12.32840016,2.59699986,0.6062254109666381,0.7952928712734264,-0.5137813061640562,-0.8579211906908213
654,-0.1238765121,-0.2074835598,-3.0802257060000002,1.316088676,-0.17657500269999998,-0.43434999469999996,-0.02345000058,-2.6165999,-12.32840016,2.59699986,0.5857169943281948,0.8105156399201348,-0.49306119997214565,-0.8699946281914779
655,-0.1465041041,-0.2005802244,-3.290316582,1.266072869,-0.13702499869999998,-0.4749499893,0.144199996,-2.185400048,-12.11279943,3.400600028,0.5648264981889934,0.8252096866515559,-0.47205753887271334,-0.8815677398779045
656,-0.1465041041,-0.2005802244,-3.290316582,1.266072869,-0.13702499869999998,-0.4749499893,0.144199996,-2.185400048,-12.11279943,3.400600028,0.5435675500012211,0.83936542613195,-0.45078240187579094,-0.8926338701612733
657,-0.1929098666,-0.1906087548,-3.7614536289999996,1.096141815,-0.09764999866,-0.45675000670000004,0.285075016,-2.165800008,-11.82860017,3.047799897,0.5219540175685935,0.8529736241783825,-0.4292480241146714,-0.9031866550130435
658,-0.20518244800000002,-0.1886911541,-3.816358089,0.9635564089,-0.09764999866,-0.45675000670000004,0.285075016,-2.165800008,-11.82860017,3.047799897,0.49999999999999994,0.8660254037844387,-0.40746678980960105,-0.9132200256248537
659,-0.2251254171,-0.1844724566,-3.859006882,0.9208728075,-0.07507499932999999,-0.384299984,0.3512249947,-1.74440003,-10.25080004,2.283399954,0.477719818512263,0.8785122509109423,-0.38545122514572494,-0.9227282118986391
660,-0.2504376471,-0.1802537441,-3.96766901,0.8960179687000001,-0.07507499932999999,-0.384299984,0.3512249947,-1.74440003,-10.25080004,2.283399954,0.4551280070880088,0.8904260200399006,-0.36321399106939756,-0.9317057457649596
661,-0.2707641423,-0.1783361584,-3.9921243189999998,0.7561308742,-0.02607500017,-0.3053750134,0.3351249933,-1.558199945,-9.535399902,1.293599993,0.43223930299474694,0.9017589394880515,-0.34076787600698955,-0.9401474643276367
662,-0.29109063739999996,-0.174500972,-4.006363392,0.7630072831999999,-0.02607500017,-0.3053750134,0.3351249933,-1.558199945,-9.535399902,1.293599993,0.4090686371713398,0.9125036164765501,-0.31812578851038176,-0.9480485128328865
663,-0.3094995022,-0.1710492969,-3.923490763,0.7546957731,0.047600000499999996,-0.2049250007,0.354375,-1.4895999519999998,-9.358999836,0.9603999749,0.3856311244881355,0.9226530419534833,-0.2953007498333809,-0.9554043474612427
664,-0.3263743222,-0.1679811478,-3.7730295660000004,0.7209993601000001,0.047600000499999996,-0.2049250007,0.354375,-1.4895999519999998,-9.358999836,0.9603999749,0.3619420538871179,0.9322005951660697,-0.2723058864433123,-0.9622107379406665
665,-0.34516674280000004,-0.1664470732,-3.764817715,0.6237432957,0.1275749993,-0.1559249973,0.331974988,-1.1662000270000001,-9.241400182000001,0.7252000093000001,0.3380168784085027,0.9411400479795616,-0.2491544224721141,-0.9684637699793355
666,-0.3601239622,-0.1641459614,-3.57135582,0.5844386816,0.1275749993,-0.1559249973,0.331974988,-1.1662000270000001,-9.241400182000001,0.7252000093000001,0.31387120511029065,0.9494655689400294,-0.2258596721112606,-0.9741598475167172
667,-0.37508121130000005,-0.160310775,-3.402164936,0.6312149167000001,0.1713249993,-0.12180000070000001,0.34264999869999996,-1.156400007,-8.761199938999999,0.6369999766,0.28952078488734845,0.9571717270783826,-0.2024350319548977,-0.979295694791629
668,-0.39157250520000003,-0.1580096632,-3.3638095860000004,0.5915031433,0.1713249993,-0.12180000070000001,0.34264999869999996,-1.156400007,-8.761199938999999,0.6369999766,0.26498150219666167,0.964253495453141,-0.17889397329558143,-0.9838683582260992
669,-0.4053791761,-0.157242626,-3.1983613969999998,0.4759965837,0.1830500007,-0.08224999666,0.2871749973,-0.6860000029000001,-8.976800084,0.7644000157999999,0.24026936469546065,0.9707062544296496,-0.15525003437706633,-0.987875208123941
670,-0.4184187949,-0.1557085514,-3.0350470539999996,0.4282172918,0.1830500007,-0.08224999666,0.2871749973,-0.6860000029000001,-8.976800084,0.7644000157999999,0.21540049279898119,0.9765257946935944,-0.13151681260858647,-0.9913139401830673
671,-0.4318419397,-0.1534074396,-2.9379675389999997,0.44325941799999996,0.17237500670000003,-0.06737499832999999,0.280700016,-1.038799988,-9.50600028,1.283799973,0.1903911091646682,0.9817083199968549,-0.10770795674511124,-0.9941825768206729
672,-0.44373103979999995,-0.1499557793,-2.8004410269999997,0.49284639950000003,0.17237500670000003,-0.06737499832999999,0.280700016,-1.038799988,-9.50600028,1.283799973,0.16525752810968491,0.9862504496339034,-0.08383715903807683,-0.9964794683105238
673,-0.45562011,-0.1484217048,-2.682014227,0.47053757310000005,0.1713249993,-0.01819999933,0.208075006,-0.5879999869,-10.00580027,1.75420005,0.14001614496862896,0.9901492206471325,-0.05991814736109364,-0.9982032937316999
674,-0.4682762325,-0.1476546675,-2.645459414,0.38717061280000004,0.1713249993,-0.01819999933,0.208075006,-0.5879999869,-10.00580027,1.75420005,0.11468342539840053,0.993402089759675,-0.03596467731518192,-0.9993530617282437
675,-0.4786312282,-0.1468876302,-2.500965834,0.3079913259,0.1819999933,-0.011900000130000001,0.24762499329999998,-0.882000035,-10.57419996,1.597400025,0.08927589463719414,0.9960069350344548,-0.011990524318043044,-0.9999281110792807
676,-0.4786312282,-0.1468876302,-2.500965834,0.3079913259,0.1819999933,-0.011900000130000001,0.24762499329999998,-0.882000035,-10.57419996,1.597400025,0.06381012672462837,0.9979620572583844,0.011990524318042676,-0.9999281110792807
677,-0.5008752942,-0.1465041041,-2.242959976,0.18500226739999998,0.15644999269999998,0.053199999330000004,0.3478999853,-1.146599987,-10.33899949,1.8228000430000002,0.03830273369003528,0.99926618105081,0.035964677315180674,-0.9993530617282438
678,-0.508929193,-0.1465041041,-2.175208092,0.1426151544,0.15644999269999998,0.053199999330000004,0.3478999853,-1.146599987,-10.33899949,1.8228000430000002,0.01277035471597366,0.9999184556954773,0.05991814736109328,-0.9982032937316999
679,-0.5208182931,-0.14497002960000002,-2.2189860340000003,0.1850025952,0.1478749967,0.1086750007,0.3436999893,-0.5683999836,-10.09399972,1.372000006,-0.012770354715973983,0.9999184556954773,0.08383715903807559,-0.9964794683105239
680,-0.5296391845,-0.1415183693,-2.095444441,0.3301259279,0.1478749967,0.1086750007,0.3436999893,-0.5683999836,-10.09399972,1.372000006,-0.038302733690035375,0.99926618105081,0.10770795674511088,-0.994182576820673
681,-0.5419117808,-0.13729965689999998,-2.19659996,0.47802802920000004,0.1329999983,0.1417500067,0.336174984,-0.9800000146,-9.358999836,1.352399966,-0.06381012672462848,0.9979620572583844,0.13151681260858522,-0.9913139401830675
682,-0.5507327318,-0.1326974332,-2.091418028,0.5876921414999999,0.1329999983,0.1417500067,0.336174984,-0.9800000146,-9.358999836,1.352399966,-0.08927589463719447,0.9960069350344547,0.15525003437706594,-0.987875208123941
683,-0.5599371791,-0.1280952096,-2.021105289,0.6748591065,0.10832500099999999,0.174824996,0.21349999670000003,-0.7447999761,-9.045399785,0.6958000228,-0.11468342539840042,0.993402089759675,0.17889397329558018,-0.9838683582260994
684,-0.5672240257,-0.12157540019999999,-1.8543277980000001,0.8368375897,0.10832500099999999,0.174824996,0.21349999670000003,-0.7447999761,-9.045399785,0.6958000228,-0.1400161449686293,0.9901492206471324,0.20243503195489645,-0.9792956947916294
685,-0.5748943686,-0.1181237325,-1.748958707,0.7980606556000001,0.05617500067000001,0.17919999600000003,0.1952999973,-1.175999974,-9.770599793999999,0.02940000026,-0.1652575281096848,0.9862504496339034,0.22585967211126023,-0.9741598475167174
686,-0.5821812749,-0.1142885461,-1.6556450130000002,0.7725932002,0.05617500067000001,0.17919999600000003,0.1952999973,-1.175999974,-9.770599793999999,0.02940000026,-0.1903911091646685,0.9817083199968549,0.24915442247211295,-0.9684637699793358
687,-0.5902351141,-0.1108368784,-1.637984753,0.7388015984999999,0.002799999937,0.16852500199999998,0.264775002,-1.077999994,-10.47620006,-0.2155999988,-0.21540049279898152,0.9765257946935944,0.272305886443312,-0.9622107379406666
688,-0.5971384645000001,-0.1070016921,-1.5736627580000002,0.7414624690999999,0.002799999937,0.16852500199999998,0.264775002,-1.077999994,-10.47620006,-0.2155999988,-0.24026936469546076,0.9707062544296496,0.2953007498333797,-0.955404347461243
689,-0.6009736657,-0.10470058019999999,-1.348061204,0.657787621,-0.01434999987,0.1630999947,0.35857499600000003,-1.058400027,-10.27039979,-0.24500000370000002,-0.2649815021966618,0.964253495453141,0.3181257885103815,-0.9480485128328866
690,-0.6086440086,-0.1023994684,-1.388452768,0.600933075,-0.01434999987,0.1630999947,0.35857499600000003,-1.058400027,-10.27039979,-0.24500000370000002,-0.28952078488734856,0.9571717270783825,0.3407678760069884,-0.9401474643276372
691,-0.6136297584,-0.1043170616,-1.294371367,0.32974770670000003,-0.030275000330000003,0.1427999973,0.3927000093,-0.882000035,-10.3977999,-0.18619999399999998,-0.313871205110291,0.9494655689400293,0.3632139910693973,-0.9317057457649598
692,-0.6189990044,-0.10316650570000001,-1.23757422,0.2655394971,-0.030275000330000003,0.1427999973,0.3927000093,-0.882000035,-10.3977999,-0.18619999399999998,-0.33801687840850303,0.9411400479795615,0.38545122514572466,-0.9227282118986392
693,-0.6247518063,-0.1020159498,-1.2136076690000002,0.2536375225,-0.03465000033,0.12372500300000001,0.4791499853,-0.8917999819,-10.80940044,-0.2646000069,-0.36194205388711803,0.9322005951660697,0.40746678980959994,-0.9132200256248542
694,-0.6293540597,-0.10278298710000001,-1.130966902,0.1500789523,-0.03465000033,0.12372500300000001,0.4791499853,-0.8917999819,-10.80940044,-0.2646000069,-0.38563112448813586,0.9226530419534831,0.42924802411467106,-0.9031866550130436
695,-0.6370244025999999,-0.1012489125,-1.235877872,0.1902730316,-0.018549998999999998,0.11077499869999999,0.6093499947,-0.8722000152,-9.907800364,0.03920000186,-0.40906863717134007,0.9125036164765499,0.45078240187578983,-0.8926338701612738
696,-0.6466123462,-0.1012489125,-1.150351763,0.1902730316,-0.018549998999999998,0.11077499869999999,0.6093499947,-0.8722000152,-9.907800364,0.03920000186,-0.43223930299474705,0.9017589394880514,0.47205753887271307,-0.8815677398779047
697,-0.6496804953,-0.0989478007,-1.1916992659999999,0.2133414447,-0.00682499975,0.08627499699999999,0.629649992,-0.7153999895,-9.447199869,0.2939999934,-0.4551280070880089,0.8904260200399006,0.49306119997214526,-0.8699946281914781
698,-0.6542827487,-0.09664668888,-1.185246944,0.29416278,-0.00682499975,0.08627499699999999,0.629649992,-0.7153999895,-9.447199869,0.2939999934,-0.4777198185122631,0.8785122509109423,0.5137813061640557,-0.8579211906908215
699,-0.6600355506000001,-0.09281150252,-1.174571157,0.41189166899999996,0.007000000104000001,0.059675001500000005,0.6189749813000001,-0.9114000216,-8.692600237999999,0.3626000047,-0.5000000000000001,0.8660254037844386,0.5342059415082012,-0.8453543706974822
700,-0.6650212407,-0.08974335343,-1.13414228,0.4614620805,0.007000000104000001,0.059675001500000005,0.6189749813000001,-0.9114000216,-8.692600237999999,0.3626000047,-0.5219540175685937,0.8529736241783823,0.5543233599868742,-0.8323013952726874
701,-0.6692399979,-0.08705872297,-1.05950892,0.48015666009999997,-0.013299999830000001,0.04252500116999999,0.5304249907,-0.8428000286,-8.957199752000001,-0.1372000042,-0.543567550001221,0.8393654261319501,0.5741219922599251,-0.8187697710611296
702,-0.6723081470000001,-0.08399057388,-0.9429206252,0.5128347874,-0.013299999830000001,0.04252500116999999,0.5304249907,-0.8428000286,-8.957199752000001,-0.1372000042,-0.5648264981889938,0.8252096866515557,0.5935904523181859,-0.8047672799739634
703,-0.6746092439,-0.08322353661000001,-0.8137514591,0.4109276533,-0.0453249985,0.026599999669999996,0.573125,-0.9800000146,-9.398199916,-0.1469999967,-0.5857169943281948,0.8105156399201348,0.612717544031459,-0.7903019747134997
704,-0.6772938370999999,-0.08245649933999999,-0.7425481081,0.3395691514,-0.0453249985,0.026599999669999996,0.573125,-0.9800000146,-9.398199916,-0.1469999967,-0.6062254109666381,0.7952928712734264,0.6314922675873004,-0.7753821741421771
705,-0.6811290382999999,-0.08092242478999999,-0.7458456754999999,0.33593639729999997,-0.08365000367,0.02012499958,0.598674984,-1.2054000329999999,-9.00620029,0.2254000004,-0.6263383698932307,0.7795513109471952,0.6499038258169182,-0.7600164584984545
706,-0.6834301353,-0.0820729807,-0.6709733605,0.19195249679999998,-0.08365000367,0.02012499958,0.598674984,-1.2054000329999999,-9.00620029,0.2254000004,-0.6460427508649544,0.7633012275994597,0.6679416304045169,-0.7442136644624014
707,-0.6853477359000001,-0.08284001797,-0.5954842567,0.09983543307000001,-0.09012500167000001,0.035,0.6210750293999999,-0.8623999953,-9.163000023,-0.01960000093,-0.6653257001655655,0.7465532216119626,0.6855953079765442,-0.7279828800738019
708,-0.6845807433,-0.08437409252,-0.40006735920000003,-0.008528467268,-0.09012500167000001,0.035,0.6210750293999999,-0.8623999953,-9.163000023,-0.01960000093,-0.6841746389904303,0.7293182181752451,0.7028547060673194,-0.7113334395057089
709,-0.6849642396,-0.08360705525,-0.32680499550000003,0.04054644331,-0.12110000130000001,0.0180249995,0.603049984,-0.8330000087999999,-8.261399949,0.3233999982,-0.7025772716520322,0.7116074601618414,0.7197098989576222,-0.6942749176964478
710,-0.6838136911,-0.08284001797,-0.18134772780000002,0.07144969702000001,-0.12110000130000001,0.0180249995,0.603049984,-0.8330000087999999,-8.261399949,0.3233999982,-0.7205215936007874,0.6934325007922415,0.7361511933828799,-0.6768171248431601
711,-0.6830466390000001,-0.08322353661000001,-0.08710239827999999,0.02919112705,-0.11567500230000001,0.033950001,0.5090750027000001,-0.1568000074,-8.506399715,0.03920000186,-0.7379958992559492,0.6748051960984021,0.7521691341076769,-0.6589701007600477
712,-0.6834301353,-0.08322353661000001,-0.08673079312000001,0.01670348458,-0.11567500230000001,0.033950001,0.5090750027000001,-0.1568000074,-8.506399715,0.03920000186,-0.7549887896414851,0.6557376971897265,0.7677545093633706,-0.6407441091045707
713,-0.6834301353,-0.08360705525,-0.06708914042,-0.02112765238,-0.12634999630000002,0.02222499967,0.520800004,-0.37239998799999996,-8.829800224,0.07840000372,-0.771489179821943,0.6362424423265597,0.7828983561456938,-0.6221496314749133
714,-0.6830466390000001,-0.08322353661000001,-0.020775143059999997,-0.002649080008,-0.12634999630000002,0.02222499967,0.520800004,-0.37239998799999996,-8.829800224,0.07840000372,-0.7874863061334658,0.6163321488063636,0.7975919653692958,-0.6031973613821136
715,-0.6834301353,-0.08284001797,-0.02981219999,0.014856668190000002,-0.12215000029999999,0.015925000459999998,0.5262249947,0.048999998899999994,-8.535799921,0.07840000372,-0.8029697332052277,0.5960198046678696,0.8118268868762544,-0.5838981981003276
716,-0.6834301353,-0.08284001797,-0.02981219999,0.014856668190000002,-0.12215000029999999,0.015925000459999998,0.5262249947,0.048999998899999994,-8.535799921,0.07840000372,-0.8179293607667175,0.5753186602186207,0.8255949342956861,-0.5642632403987539
717,-0.6818960905,-0.0820729807,0.08184213936000001,0.049269899730000004,-0.1274000037,0.015925000459999998,0.4887750053,0.4115999945,-8.643600285,0.1666000091,-0.8323554302364274,0.5542422193914244,0.8388881897516497,-0.5443037801588375
718,-0.6822795868000001,-0.08360705525,0.05471976101,-0.045996472239999996,-0.1274000037,0.015925000459999998,0.4887750053,0.4115999945,-8.643600285,0.1666000091,-0.8462385310876442,0.5328042309353653,0.8516990084166439,-0.5240312958804136
719,-0.6811290382999999,-0.08245649933999999,0.1069552973,0.02347531542,-0.1295000017,0.01155000046,0.454649992,0.6566000164,-8.653400159,0.37239998799999996,-0.8595696069872012,0.5110186794471103,0.8640200229080762,-0.5034574460805277
720,-0.6818960905,-0.0820729807,0.03560234606,0.04341514409,-0.1295000017,0.01155000046,0.454649992,0.6566000164,-8.653400159,0.37239998799999996,-0.872339961703175,0.4888997762483669,0.875844147525175,-0.48259406258873455
721,-0.6792114376999999,-0.08360705525,0.15478704869999999,-0.04833768308,-0.1231999993,0.015925000459999998,0.406699996,0.9114000216,-8.604400206000001,0.6566000164,-0.8845412647776795,0.4664619501154442,0.8871645823239125,-0.46145314374271834
722,-0.6784444451,-0.08245649933999999,0.1388904154,0.023459399120000002,-0.1231999993,0.015925000459999998,0.406699996,0.9114000216,-8.604400206000001,0.6566000164,-0.8961655569610557,0.4437198378669595,0.8979748170275874,-0.4400468474881634
723,-0.6730751395,-0.08284001797,0.38460165259999995,-0.004931492731,-0.11777500029999999,0.02012499958,0.3169250107,1.038799988,-8.388800061,0.950600028,-0.9072052554039121,0.42068827481583393,0.9082686347708254,-0.41838748438683127
724,-0.6707740426,-0.08168946207000001,0.4053509533,0.06075204536000001,-0.11777500029999999,0.02012499958,0.3169250107,1.038799988,-8.388800061,0.950600028,-0.9176531586036281,0.39738228509180495,0.9180401156748391,-0.3964875105368742
725,-0.6696234941,-0.08130594343,0.3692789078,0.07132665813,-0.08802500367,0.04462499916999999,0.223125,1.283799973,-8.957199752000001,1.587600005,-0.9275024511020948,0.37381707184076846,0.9272836402518976,-0.37435952040944454
726,-0.6700069904,-0.08130594343,0.2554190159,0.05519459397000001,-0.08802500367,0.04462499916999999,0.223125,1.283799973,-8.957199752000001,1.587600005,-0.9367467079316278,0.3500080073073436,0.9359938926370397,-0.3520162396057345
727,-0.6703905463000001,-0.08092242478999999,0.1618788242,0.062408063560000004,-0.05809999882999999,0.082075001,0.1942500067,1.1172000009999998,-9.496199822000001,1.6561999980000002,-0.9453798988061534,0.32597062280712835,0.9441658636451788,-0.3294705175386008
728,-0.6677058935,-0.08015538752000001,0.24633646010000002,0.09255315363,-0.05809999882999999,0.082075001,0.1942500067,1.1172000009999998,-9.496199822000001,1.6561999980000002,-0.9533963920549307,0.3017205985951918,0.9517948536518398,-0.30673532004298576
